sep=;
ACCELEROMETER X (m/s²);ACCELEROMETER Y (m/s²);ACCELEROMETER Z (m/s²);GRAVITY X (m/s²);GRAVITY Y (m/s²);GRAVITY Z (m/s²);LINEAR ACCELERATION X (m/s²);LINEAR ACCELERATION Y (m/s²);LINEAR ACCELERATION Z (m/s²);GYROSCOPE X (rad/s);GYROSCOPE Y (rad/s);GYROSCOPE Z (rad/s);LIGHT (lux);MAGNETIC FIELD X (μT);MAGNETIC FIELD Y (μT);MAGNETIC FIELD Z (μT);ORIENTATION X (°);ORIENTATION Y (°);ORIENTATION Z (°);PROXIMITY (i);SOUND LEVEL (dB);LOCATION Latitude : ;LOCATION Longitude : ;LOCATION Altitude ( m);LOCATION Speed ( Kmh);LOCATION Accuracy ( m);Satellites in range;Temperature (F);Level (%);Voltage (Volt);Time since start in ms ;YYYY-MO-DD HH-MI-SS_SSS
-1.5048;8.6239;3.9367;-1.8641;8.4019;4.7014;0.5485;-0.0109;0.4809;0.0951;-0.6602;-0.2618;15.0;676.1;-224.5;986.9;234.62;-58.62;20.85;2.0;55.872;19.519741;-96.915634;4348.39;0.0;132.25806;9 / 17;99.7;56.0;3.817;22;2014-11-08 13:54:19:819
-1.0858;7.7159;4.774;-1.3197;8.6985;4.3319;0.2339;-0.9826;0.4421;0.0551;-0.6282;-0.3542;11.0;662.6;-227.1;983.2;228.57;-61.07;14.99;2.0;53.934;19.519741;-96.915634;4348.39;0.0;132.25806;9 / 17;99.7;56.0;3.817;549;2014-11-08 13:54:20:346
-2.1398;8.114;3.8762;-1.6354;8.7132;4.1923;-0.5045;-0.5993;-0.3161;0.1478;0.1286;0.081;11.0;661.0;-229.5;982.8;234.06;-62.69;21.31;2.0;45.307;19.519741;-96.915634;4348.39;0.0;132.25806;9 / 17;99.7;56.0;3.817;1055;2014-11-08 13:54:20:852
-1.6759;8.8077;3.2178;-1.754;8.8395;3.8675;0.1407;-0.0482;-0.8821;0.2485;-0.5028;-0.1816;8.0;660.6;-230.7;983.6;235.74;-63.6;23.25;2.0;49.539;19.519741;-96.915634;4348.39;0.0;132.25806;9 / 17;99.7;56.0;3.817;1555;2014-11-08 13:54:21:352
-0.2137;7.932;4.7489;-1.5989;8.4062;4.7907;1.3508;-0.5114;0.3529;-0.0802;-0.4868;-0.172;8.0;649.2;-232.7;984.8;232.35;-62.28;19.99;2.0;45.166;19.519741;-96.915634;4348.39;0.0;132.25806;9 / 17;99.7;56.0;3.817;2063;2014-11-08 13:54:21:860
-1.221;9.0567;4.9853;-1.8205;8.3922;4.7358;0.5994;0.6645;0.2496;-0.0317;0.0866;-0.021;33.0;648.0;-231.9;985.6;232.11;-57.86;19.3;2.0;38.97;19.519741;-96.915634;4348.39;0.0;132.25806;9 / 17;99.7;56.0;3.817;2574;2014-11-08 13:54:22:371
-1.7472;8.57;3.07;-2.2787;8.7599;3.7739;0.5315;-0.1898;-0.704;0.3529;0.576;0.0096;163.0;655.9;-230.2;985.2;235.05;-60.21;22.47;2.0;42.577;19.519741;-96.915634;4348.39;0.0;132.25806;9 / 17;99.7;56.0;3.817;3103;2014-11-08 13:54:22:900
-3.5219;6.6583;4.8734;-2.6412;8.8741;3.2318;-0.8807;-2.2158;1.6416;0.6783;0.6498;0.1364;52.0;668.3;-231.4;983.8;250.43;-64.81;39.26;2.0;39.615;19.519741;-96.915634;4348.39;0.0;132.25806;9 / 17;99.7;56.0;3.817;3603;2014-11-08 13:54:23:400
-4.1575;8.6317;2.074;-3.3496;8.8289;2.646;-0.8079;-0.1972;-0.572;-0.0083;0.9771;-0.2501;32.0;668.1;-234.3;987.7;256.66;-68.83;45.87;2.0;40.027;19.519741;-96.915634;4348.39;0.0;132.25806;9 / 17;99.7;56.0;3.817;4104;2014-11-08 13:54:23:901
-2.4074;10.234;1.6299;-3.0086;9.1455;1.8652;0.6012;1.0885;-0.2353;0.1025;-0.3814;0.4562;32.0;673.5;-230.7;993.9;275.18;-67.09;66.13;2.0;41.95;19.519741;-96.915634;4348.39;0.0;132.25806;9 / 17;99.7;56.0;3.817;4631;2014-11-08 13:54:24:428
-2.4481;10.8374;1.3946;-2.7019;9.2642;1.7451;0.952;-0.1927;0.2865;-0.306;0.595;-0.0471;40.0;675.6;-229.9;992.2;265.99;-68.5;55.73;2.0;43.556;19.519741;-96.915634;4348.39;0.0;132.25806;9 / 17;99.7;56.0;3.817;5139;2014-11-08 13:54:24:936
-2.6438;7.8248;1.8052;-2.9756;9.0981;2.1309;0.3318;-1.2732;-0.3257;0.0232;-0.0621;0.0945;62.0;682.3;-231.9;994.2;264.86;-69.13;54.23;2.0;45.886;19.519741;-96.915634;4348.39;0.0;132.25806;9 / 17;99.7;56.0;3.817;5653;2014-11-08 13:54:25:450
-3.6248;7.4496;0.8434;-2.6069;9.1164;2.5031;0.3545;-2.29;-0.7721;0.3103;0.5539;-0.2927;85.0;677.2;-232.3;992.0;257.15;-68.38;46.16;2.0;44.39;19.519741;-96.915634;4348.39;0.0;132.25806;9 / 17;99.7;56.0;3.817;6179;2014-11-08 13:54:25:976
-2.7557;8.6024;0.5878;-3.2493;8.9303;2.4213;0.4936;-0.3279;-1.8335;-0.323;1.2512;0.0791;89.0;688.9;-231.4;1001.6;263.54;-65.59;53.31;2.0;40.275;19.519741;-96.915634;4348.39;0.0;132.25806;10 / 17;99.7;56.0;3.817;6701;2014-11-08 13:54:26:498
-4.3712;7.3059;4.7962;-2.936;8.2593;4.3971;-1.4352;-0.9534;0.3991;-0.1633;-1.6328;-0.9231;60.0;687.5;-228.9;999.4;258.45;-65.63;47.64;2.0;38.412;19.519741;-96.915634;4348.39;0.0;132.25806;10 / 17;99.7;56.0;3.817;7238;2014-11-08 13:54:27:035
-2.9293;9.4751;4.9261;-1.2819;8.2521;5.1411;-1.0628;0.7545;1.0964;0.3571;0.2296;0.534;164.0;679.8;-223.3;991.4;228.67;-57.3;14.0;2.0;39.772;19.519741;-96.915634;4348.39;0.0;132.25806;10 / 17;99.7;56.0;3.817;7763;2014-11-08 13:54:27:560
-0.6704;9.8521;3.9085;-0.0343;8.4042;5.0536;-0.4769;1.175;0.0826;-0.217;-0.2687;0.1614;147.0;680.1;-226.9;993.0;219.62;-58.24;4.59;2.0;43.735;19.519753;-96.91563;4354.84;0.0;38.709675;11 / 17;99.7;56.0;3.817;8273;2014-11-08 13:54:28:070
-0.3735;8.5036;4.3215;0.1751;8.2746;5.2602;0.1535;-0.2942;-0.6077;-0.127;0.9851;0.1047;70.0;681.1;-229.3;993.4;213.47;-57.54;-1.91;2.0;44.113;19.519753;-96.91563;4354.84;0.0;38.709675;11 / 17;99.7;56.0;3.817;8781;2014-11-08 13:54:28:578
-2.1602;7.7859;3.9816;-0.983;7.6897;6.0061;-2.0055;-0.7592;0.601;-0.5206;0.6053;0.3787;15.0;687.9;-230.6;1002.5;225.29;-51.64;9.3;2.0;45.933;19.519753;-96.91563;4354.84;0.0;38.709675;11 / 17;99.7;56.0;3.817;9309;2014-11-08 13:54:29:106
-0.483;8.2235;5.8712;-0.4535;7.5124;6.2872;-0.3138;1.0074;-0.6261;-0.134;0.1734;0.2501;15.0;687.9;-238.4;1005.7;220.64;-50.0;4.13;2.0;46.313;19.519753;-96.91563;4354.84;0.0;38.709675;11 / 17;99.7;56.0;3.817;9835;2014-11-08 13:54:29:632
0.5638;7.5064;5.1894;-0.628;7.1324;6.7011;1.4475;0.2872;-1.6074;0.0349;0.0455;-0.0109;19.0;685.4;-242.3;1009.2;218.94;-48.96;2.26;2.0;49.239;19.519756;-96.91562;4354.84;0.0;38.709675;12 / 17;99.7;56.0;3.817;10363;2014-11-08 13:54:30:160
-1.1809;6.7762;6.6331;-1.2716;7.0544;6.6925;1.1627;-0.0867;-0.4633;0.2964;-0.0716;0.3196;52.0;685.2;-244.9;1012.7;226.77;-42.74;9.06;2.0;51.52;19.519756;-96.91562;4354.84;0.0;38.709675;12 / 17;99.7;56.0;3.817;10867;2014-11-08 13:54:30:664
-1.9387;8.6377;2.7515;-2.7001;8.7159;3.5934;0.0689;-0.6705;1.0414;1.8959;-0.6008;-1.5936;165.0;694.0;-238.0;1020.7;231.41;-56.58;17.73;2.0;52.2;19.519756;-96.91562;4354.84;0.0;38.709675;12 / 17;99.7;56.0;3.817;11397;2014-11-08 13:54:31:194
-2.4205;8.2809;4.4694;-3.5178;7.6889;4.9675;1.0972;0.592;-0.4981;-0.0434;-0.7859;0.3949;53.0;698.6;-222.1;998.8;252.9;-51.65;41.31;2.0;52.057;19.519756;-96.91562;4354.84;0.0;38.709675;12 / 17;99.7;56.0;3.817;11917;2014-11-08 13:54:31:714
-2.5815;8.1864;3.963;-2.7472;8.3149;4.4143;0.1656;-0.1285;-0.4513;0.2037;-1.2802;-0.927;57.0;684.8;-226.6;983.7;244.65;-57.98;31.9;2.0;50.03;19.519756;-96.91562;4354.84;0.0;38.709675;13 / 17;99.7;56.0;3.817;12443;2014-11-08 13:54:32:240
-2.4116;8.114;5.0129;-2.2868;8.4238;4.4699;-0.267;-0.2948;0.4858;0.1606;0.5699;-0.0762;104.0;676.0;-230.3;979.2;240.12;-59.2;27.09;2.0;51.365;19.519756;-96.91562;4354.84;0.0;38.709675;13 / 17;99.7;56.0;3.794;12952;2014-11-08 13:54:32:749
-3.6512;7.6255;3.8044;-2.3217;8.8097;3.629;-1.3295;-1.1842;0.1754;0.5531;0.7017;0.0245;161.0;677.7;-233.1;980.4;244.51;-63.55;32.21;2.0;50.812;19.51976;-96.91561;4354.84;0.0;32.258064;13 / 17;99.7;56.0;3.794;13461;2014-11-08 13:54:33:258
-1.5802;8.8747;1.8411;-1.3552;8.9758;3.7107;-0.225;-0.1011;-1.8696;-0.2618;0.9569;0.4983;169.0;681.1;-238.1;986.4;232.09;-67.35;18.84;2.0;48.303;19.51976;-96.91561;4354.84;0.0;32.258064;13 / 17;99.7;56.0;3.794;13985;2014-11-08 13:54:33:782
-2.9323;9.2811;3.9002;-1.8844;8.817;3.8574;-1.0479;0.4641;0.0427;-1.1614;0.6679;-1.0453;377.0;689.2;-238.5;993.6;231.24;-65.23;17.74;2.0;62.707;19.51976;-96.91561;4354.84;0.0;32.258064;14 / 17;99.7;56.0;3.794;14516;2014-11-08 13:54:34:313
-3.8487;11.0187;5.7892;-3.9936;7.2849;5.2108;-0.0574;0.8441;0.1899;0.2687;-0.0999;-0.5129;1162.0;694.6;-227.5;996.2;249.83;-47.97;37.47;2.0;52.638;19.51976;-96.91561;4354.84;0.0;32.258064;14 / 17;99.7;56.0;3.794;15031;2014-11-08 13:54:34:828
-4.4951;8.4521;5.1996;-3.2116;7.9129;4.8209;-4.275;-0.127;2.9243;0.1803;-0.49;0.3396;686.0;685.8;-229.2;996.1;251.76;-55.69;40.59;2.0;52.783;19.51976;-96.91561;4354.84;0.0;32.258064;13 / 16;99.7;56.0;3.794;15532;2014-11-08 13:54:35:329
-4.4131;10.6871;6.0154;-4.2139;7.3654;4.9158;-0.1992;3.3218;1.0997;-0.3571;-0.179;0.8698;1266.0;690.0;-224.4;1000.6;252.02;-48.68;40.6;2.0;51.228;19.51976;-96.91561;4354.84;0.0;32.258064;13 / 16;99.7;56.0;3.794;16056;2014-11-08 13:54:35:853
-5.2212;7.5214;2.0943;-4.039;7.7112;4.516;-1.1822;-0.1898;-2.4217;0.5547;-0.0509;-0.2911;1064.0;687.9;-225.2;998.3;252.86;-51.84;41.81;2.0;57.222;19.51976;-96.91561;4354.84;0.0;32.258064;14 / 17;99.7;56.0;3.794;16569;2014-11-08 13:54:36:366
-0.3244;5.2625;5.7263;-0.8202;7.2231;6.5821;0.7867;-1.589;-0.4242;-0.9457;-0.5097;0.9558;1475.0;679.4;-226.0;991.5;238.51;-52.66;24.52;2.0;50.766;19.51976;-96.91561;4354.84;0.0;32.258064;14 / 17;99.7;56.0;3.794;17070;2014-11-08 13:54:36:867
-3.0801;5.7144;1.9429;-3.7578;7.7136;4.7487;0.6776;-1.9992;-2.8058;0.5446;-0.9217;-0.6956;1514.0;687.3;-225.5;999.4;250.08;-51.87;38.36;2.0;53.684;19.519753;-96.91562;4354.84;0.9;16.129032;14 / 16;99.7;56.0;3.794;17613;2014-11-08 13:54:37:410
-10.972;4.297;9.7169;-7.849;5.3477;2.4426;1.6821;-2.1125;2.927;-0.9968;0.6786;-0.5068;1057.0;694.4;-209.4;1007.0;271.13;-33.05;72.71;2.0;55.254;19.519753;-96.91562;4354.84;0.9;16.129032;14 / 16;99.7;56.0;3.794;18122;2014-11-08 13:54:37:919
-8.9699;8.6473;6.1507;-5.6506;6.5855;4.5687;-1.1259;1.6488;0.8072;0.338;-0.4242;0.8171;1793.0;694.0;-214.4;1008.5;263.29;-31.99;58.8;2.0;57.071;19.519766;-96.91561;4358.06;2.7;12.903226;14 / 16;99.7;56.0;3.794;18655;2014-11-08 13:54:38:452
-4.1563;7.1958;3.307;-4.2313;8.1261;3.4976;0.075;-0.9303;-0.1906;-0.0658;0.2314;0.0538;1165.0;684.1;-223.9;999.0;254.45;-54.75;43.85;2.0;52.196;19.519766;-96.91561;4358.06;2.7;12.903226;14 / 16;99.7;56.0;3.794;19187;2014-11-08 13:54:38:984
-2.5181;7.3807;0.2472;-3.7518;8.6293;2.7622;1.2337;-1.2486;-2.515;0.3736;0.6418;-0.2815;959.0;680.4;-226.8;997.0;263.09;-61.64;53.64;2.0;50.56;19.519772;-96.91562;4351.61;1.8;12.903226;15 / 17;99.7;56.0;3.794;19713;2014-11-08 13:54:39:510
-5.1302;5.3558;0.6644;-4.5305;8.2135;2.8605;-0.5996;-2.8577;-2.1961;0.4045;0.7894;-0.2711;1111.0;684.3;-223.9;999.1;266.0;-56.88;57.73;2.0;50.604;19.519772;-96.91562;4351.61;1.8;12.903226;15 / 18;99.7;56.0;3.794;20213;2014-11-08 13:54:40:010
-0.1;4.6531;0.0527;-2.0493;9.0215;3.2532;2.6473;-3.2664;-1.8927;-0.2123;0.1092;0.1534;836.0;677.3;-227.4;997.6;267.99;-61.0;59.36;2.0;49.388;19.519772;-96.91562;4351.61;1.8;12.903226;15 / 18;99.7;56.0;3.794;20748;2014-11-08 13:54:40:545
-4.2198;11.956;5.2361;-3.3625;8.3993;3.7837;-0.8573;3.5568;1.4524;0.0834;0.3361;0.3103;1320.0;684.2;-224.3;1001.1;252.66;-58.92;41.63;2.0;50.273;19.519772;-96.91562;4351.61;1.8;12.903226;16 / 18;99.7;56.0;3.794;21297;2014-11-08 13:54:41:094
-4.4831;11.6969;0.343;-4.0611;8.9224;0.2622;-0.4221;2.7745;0.0807;-1.1731;-1.7329;0.2876;1698.0;684.1;-225.4;1001.7;294.19;-65.48;86.31;2.0;53.645;19.519772;-96.91562;4351.61;1.8;12.903226;16 / 18;99.7;56.0;3.794;21806;2014-11-08 13:54:41:603
-3.969;7.6543;3.0873;-4.0266;8.175;3.6231;0.0577;-0.5207;-0.5357;-2.3668;-2.1164;0.1124;1621.0;681.6;-218.5;998.5;258.0;-56.47;48.02;2.0;51.949;19.519772;-96.91561;4351.61;1.8;12.903226;16 / 18;99.7;56.0;3.794;22331;2014-11-08 13:54:42:128
-1.5287;5.354;6.5469;-1.4107;5.9835;7.6405;-0.118;-0.6295;-1.0936;-0.0509;-0.9492;0.0096;2539.0;675.2;-209.8;994.9;232.34;-37.75;12.34;2.0;53.422;19.519772;-96.91561;4351.61;1.8;12.903226;16 / 18;99.7;56.0;3.794;22868;2014-11-08 13:54:42:665
-1.1013;4.9865;7.255;-1.0178;5.518;8.0428;-0.0836;-0.5315;-0.7878;0.1755;0.576;0.2839;2712.0;673.1;-207.9;994.1;230.1;-32.54;7.11;2.0;50.18;19.519773;-96.91562;4348.39;0.9;12.903226;16 / 18;99.7;56.0;3.794;23419;2014-11-08 13:54:43:216
-1.6436;4.9817;6.2088;-1.2861;5.8282;7.7813;-0.2977;-0.692;-2.7098;0.7172;0.4615;-0.4178;2687.0;675.9;-209.1;995.7;230.38;-36.46;9.38;2.0;52.057;19.519773;-96.91562;4348.39;0.9;12.903226;16 / 18;99.7;56.0;3.794;23919;2014-11-08 13:54:43:716
-11.2569;9.1572;5.703;-6.0831;6.7607;3.6687;-5.1738;2.3966;2.0343;-1.326;-1.2802;-0.1694;1848.0;678.6;-213.2;997.5;263.11;-55.69;54.29;2.0;50.55;19.519773;-96.91562;4348.39;0.9;12.903226;16 / 17;99.7;56.0;3.794;24451;2014-11-08 13:54:44:248
-8.4617;10.2771;3.7266;-5.5195;7.1015;3.9081;-4.1566;2.8536;2.418;-0.9649;-1.0378;0.3499;1764.0;675.2;-209.3;996.0;267.22;-48.75;60.92;2.0;49.527;19.519773;-96.91562;4348.39;0.9;12.903226;16 / 17;99.7;56.0;3.794;24961;2014-11-08 13:54:44:758
-6.3267;6.7606;4.2096;-5.1907;7.4052;3.7934;-1.136;-0.6446;0.4162;0.0157;0.1015;-0.4077;1818.0;679.9;-209.4;993.9;260.19;-51.44;50.91;2.0;47.885;19.519773;-96.91562;4348.39;0.9;12.903226;16 / 17;99.7;56.0;3.794;25488;2014-11-08 13:54:45:285
-3.4656;7.6716;2.7138;-5.1957;7.3609;3.8719;1.7301;0.3107;-1.158;0.3193;0.2392;0.033;1970.0;679.4;-208.9;991.5;261.88;-47.35;53.72;2.0;48.392;19.519785;-96.91562;4341.94;1.8;12.903226;16 / 17;99.7;56.0;3.794;26044;2014-11-08 13:54:45:841
-5.7371;10.8876;3.7763;-5.4278;7.4851;3.2685;-0.0273;1.3664;-0.3894;0.8844;0.0099;-0.2003;2209.0;681.3;-210.9;991.5;266.11;-49.75;58.94;2.0;57.359;19.519789;-96.91562;4341.94;1.8;12.903226;16 / 17;99.7;56.0;3.794;26566;2014-11-08 13:54:46:363
-4.8584;9.7671;4.4179;-3.8996;8.3623;3.3219;0.9861;1.5621;-0.2042;0.0173;-0.7561;0.453;2531.0;683.2;-217.2;991.5;259.66;-58.51;49.57;2.0;51.13;19.519789;-96.91562;4341.94;1.8;12.903226;16 / 17;99.7;56.0;3.794;27071;2014-11-08 13:54:46:868
-0.9667;8.6341;2.0602;-1.4368;9.1795;3.1373;0.4702;-0.5454;-1.0771;0.2479;-0.0655;-0.0708;2309.0;679.2;-224.4;989.1;251.11;-66.46;39.39;2.0;52.797;19.519796;-96.91563;4338.71;1.8;12.903226;16 / 17;99.7;56.0;3.794;27670;2014-11-08 13:54:47:467
-1.4066;8.7574;3.0041;-1.1041;9.1912;3.2363;-0.3025;-0.4338;-0.2322;0.0328;-0.0471;-0.0959;2105.0;672.5;-225.6;986.3;230.91;-69.44;17.81;2.0;53.183;19.519796;-96.91563;4338.71;1.8;12.903226;16 / 17;99.7;56.0;3.794;28219;2014-11-08 13:54:48:016
1.3886;1.4437;-0.9487;-1.1541;9.1931;3.2133;2.5428;-7.7494;-4.162;-0.0631;-0.1989;-0.8858;1936.0;669.3;-226.4;985.5;232.59;-69.62;19.76;2.0;60.638;19.519802;-96.91562;4341.94;2.7;12.903226;16 / 17;99.7;56.0;3.794;28739;2014-11-08 13:54:48:536
-10.0736;5.5701;16.611;-4.7952;4.5593;7.238;-5.2784;1.0108;9.373;3.5934;-0.9023;1.1526;3812.0;668.5;-184.9;999.5;261.43;1.75;45.58;2.0;63.75;19.519808;-96.91562;4338.71;2.7;12.903226;16 / 18;99.7;56.0;3.794;29285;2014-11-08 13:54:49:082
-0.8984;5.4468;3.2406;-4.2507;5.4722;6.9396;4.2034;0.1781;-5.2079;-0.0157;-1.2581;-1.5015;1221.0;655.1;-227.2;983.6;249.53;-25.72;33.25;2.0;61.811;19.519808;-96.91562;4338.71;2.7;12.903226;16 / 18;99.7;56.0;3.794;29785;2014-11-08 13:54:49:582
-5.7114;5.6234;6.523;-4.0895;6.3312;6.2739;-1.6219;-0.7079;0.2491;1.4549;-0.2639;-1.6088;670.0;639.8;-241.0;998.0;244.32;-41.07;31.98;2.0;61.074;19.519815;-96.91562;4341.94;2.7;12.903226;16 / 18;99.7;56.0;3.794;30323;2014-11-08 13:54:50:120
-3.975;4.4005;8.354;-3.3285;5.2609;7.5772;-0.6465;-0.8604;0.7768;0.1414;0.738;-0.4165;1019.0;639.6;-247.5;1006.4;237.62;-36.41;21.71;2.0;65.241;19.519815;-96.91562;4341.94;2.7;12.903226;16 / 18;99.7;56.0;3.794;30839;2014-11-08 13:54:50:636
-6.8582;7.683;9.5565;-4.5413;4.2221;7.5974;-2.3169;3.4609;1.959;-1.0527;0.4245;0.0272;1226.0;643.8;-248.0;1000.6;246.17;-29.03;31.13;2.0;56.651;19.51982;-96.91561;4341.94;2.7;12.903226;16 / 18;99.7;56.0;3.794;31366;2014-11-08 13:54:51:163
-4.9141;7.7446;7.3592;-4.3997;5.6025;6.7398;-0.8436;1.525;-2.2363;-0.7161;0.469;0.2743;1142.0;641.8;-247.4;1006.4;246.03;-34.84;33.14;2.0;54.311;19.51982;-96.91561;4341.94;2.7;12.903226;16 / 18;99.7;56.0;3.794;31905;2014-11-08 13:54:51:702
-3.7266;6.5392;6.8468;-3.9027;4.677;7.6854;0.1761;1.8621;-0.8385;-0.8535;0.4938;0.1731;1050.0;637.8;-241.0;1000.5;244.28;-36.22;30.71;2.0;57.761;19.519817;-96.9156;4341.94;2.7;12.903226;17 / 19;99.7;56.0;3.794;32440;2014-11-08 13:54:52:237
-2.736;3.9738;4.1138;-4.2403;5.9446;6.5461;1.5043;-1.9708;-2.4323;0.0961;0.5654;0.3739;1256.0;638.7;-236.0;993.6;245.73;-32.36;31.11;2.0;61.962;19.519817;-96.9156;4341.94;2.7;12.903226;17 / 19;99.7;56.0;3.794;32953;2014-11-08 13:54:52:750
-5.2008;3.3956;5.6904;-5.1343;4.7899;6.8459;-0.0665;-1.3943;-1.1555;0.5393;-0.4192;0.2447;1462.0;645.7;-228.4;986.6;251.27;-25.08;36.97;2.0;51.52;19.519812;-96.91559;4341.94;2.7;12.903226;16 / 19;99.7;56.0;3.794;33460;2014-11-08 13:54:53:257
-4.9829;7.0138;7.2826;-4.6965;4.7932;7.1511;-2.2246;2.6274;-0.1383;0.7049;-0.013;-0.6021;1343.0;644.2;-230.6;988.0;249.24;-29.08;35.01;2.0;51.024;19.519812;-96.91559;4341.94;2.7;12.903226;16 / 19;99.7;56.0;3.794;33987;2014-11-08 13:54:53:784
-3.2741;5.8257;5.3032;-5.2161;5.4261;6.2865;0.6627;0.5986;0.393;0.1654;-0.3124;-0.041;1033.0;641.8;-241.4;995.4;250.61;-33.59;39.68;2.0;53.314;19.519808;-96.91558;4338.71;2.7;12.903226;16 / 19;99.7;56.0;3.794;34503;2014-11-08 13:54:54:300
-3.875;5.2307;6.5224;-4.5547;5.3705;6.8251;0.6291;0.0627;-1.048;0.2091;-0.2703;-0.2099;1306.0;644.9;-240.1;995.2;247.19;-33.21;33.72;2.0;53.453;19.519808;-96.91558;4338.71;2.7;12.903226;16 / 19;99.7;56.0;3.794;35038;2014-11-08 13:54:54:835
-3.553;6.1513;7.7883;-3.482;6.1535;6.7956;0.141;0.5542;0.0447;0.4823;-0.2474;3.0E-4;1510.0;643.7;-244.3;1003.7;241.22;-38.86;27.13;2.0;53.554;19.519802;-96.91557;4338.71;2.7;12.903226;16 / 18;99.7;56.0;3.794;35561;2014-11-08 13:54:55:358
-5.1817;5.1739;6.5673;-5.7566;5.0579;6.1196;0.575;0.1159;0.4477;-0.2565;-0.0844;-0.0322;1365.0;653.8;-245.4;999.6;253.03;-31.05;43.25;2.0;53.915;19.519802;-96.91557;4338.71;2.7;12.903226;16 / 18;99.7;56.0;3.794;36088;2014-11-08 13:54:55:885
-5.8448;5.6144;5.9304;-5.4582;5.3482;6.1461;-0.3867;0.2662;-0.2157;0.478;-0.3633;-0.2775;1373.0;654.8;-246.7;1002.0;251.86;-33.05;41.61;2.0;55.335;19.519796;-96.915565;4338.71;2.7;12.903226;16 / 18;99.7;56.0;3.794;36590;2014-11-08 13:54:56:387
-4.2335;5.1176;4.0115;-4.513;6.9968;5.1815;0.2795;-1.8792;-1.17;0.9808;0.5643;0.84;1532.0;652.2;-248.3;1008.1;250.41;-45.52;41.06;2.0;55.825;19.519796;-96.915565;4338.71;2.7;12.903226;16 / 18;99.7;56.0;3.794;37097;2014-11-08 13:54:56:894
-4.5209;5.1942;7.501;-6.2004;5.6035;5.131;2.4938;0.0551;1.3831;-1.6882;1.2565;1.1979;965.0;655.3;-231.9;987.2;256.78;-39.13;49.84;2.0;55.149;19.519789;-96.915565;4338.71;2.7;9.677419;16 / 18;99.7;56.0;3.794;37615;2014-11-08 13:54:57:412
-5.7521;5.0637;6.4224;-6.3932;4.4571;5.9525;0.3515;0.8947;-0.8281;-0.2719;0.2818;0.445;1562.0;663.0;-214.8;984.3;256.76;-27.03;47.04;2.0;53.75;19.519789;-96.915565;4338.71;2.7;9.677419;16 / 18;99.7;56.0;3.794;38153;2014-11-08 13:54:57:950
-5.4947;6.6128;6.1585;-5.3808;6.2658;5.2874;0.2341;0.383;-0.0678;0.3854;-0.1092;0.2312;1416.0;661.4;-219.1;984.3;256.91;-34.11;48.07;2.0;54.628;19.519781;-96.915565;4341.94;0.0;9.677419;16 / 18;99.7;56.0;3.794;38674;2014-11-08 13:54:58:471
-5.105;7.0946;3.6811;-5.1213;7.2293;4.2047;0.0163;-0.1347;-0.5236;-0.1111;-0.3457;0.1033;1062.0;654.4;-225.8;985.1;258.43;-47.49;50.61;2.0;52.558;19.519781;-96.915565;4341.94;0.0;9.677419;16 / 18;99.7;56.0;3.794;39220;2014-11-08 13:54:59:017
-3.7481;7.3119;5.3923;-4.4518;6.957;5.2869;0.7037;0.3549;0.1054;-0.2192;-0.081;-0.0866;1437.0;657.0;-224.0;984.7;250.97;-45.19;40.1;2.0;56.763;19.519781;-96.915565;4341.94;0.0;9.677419;16 / 18;99.7;56.0;3.794;39733;2014-11-08 13:54:59:530
-4.9973;6.6409;5.4534;-5.3345;6.4976;5.0492;0.573;0.3803;0.5305;0.2123;0.3015;-0.318;1330.0;659.3;-222.4;984.3;253.21;-42.38;42.97;2.0;58.514;19.519781;-96.915565;4341.94;0.0;9.677419;16 / 18;99.7;56.0;3.794;40241;2014-11-08 13:55:00:038
-5.5659;6.6283;3.7781;-6.1164;6.2926;4.3776;0.5505;0.3358;-0.5996;0.3997;-0.2083;-0.269;1040.0;656.1;-224.0;985.1;260.53;-39.92;54.41;2.0;56.031;19.519781;-96.915565;4341.94;0.0;9.677419;16 / 18;99.7;56.0;3.794;40807;2014-11-08 13:55:00:604
-4.3383;7.2323;4.1911;-5.6982;6.6641;4.3921;1.3599;0.5682;-0.201;0.2863;-0.4269;-0.1356;997.0;647.3;-231.7;986.9;258.87;-42.81;52.38;2.0;54.183;19.519781;-96.915565;4341.94;0.0;9.677419;16 / 19;99.7;56.0;3.794;41307;2014-11-08 13:55:01:104
-4.9608;7.3023;3.5769;-5.4714;6.9648;4.2103;0.5106;0.3375;-0.6333;-0.0945;0.0663;-0.1268;887.0;651.1;-235.8;990.1;259.61;-45.54;53.18;2.0;54.52;19.519781;-96.915565;4341.94;0.0;9.677419;16 / 19;99.7;56.0;3.794;41870;2014-11-08 13:55:01:667
0.7823;4.6489;9.5678;-0.7334;4.8077;8.5158;1.5157;-0.1587;1.052;-0.5159;-0.1848;0.0618;2207.0;630.6;-221.8;993.9;227.58;-29.36;4.92;2.0;53.755;19.519781;-96.915565;4341.94;0.0;9.677419;16 / 19;99.7;56.0;3.794;42399;2014-11-08 13:55:02:196
-0.8033;5.8041;7.2993;-1.3538;6.0874;7.5684;0.5506;-0.2833;-0.2691;1.0453;1.3835;0.2277;2134.0;633.4;-223.6;993.0;228.21;-38.37;10.14;2.0;53.187;19.519781;-96.915565;4341.94;0.0;9.677419;16 / 19;99.7;56.0;3.794;42900;2014-11-08 13:55:02:697
-1.9644;5.4905;8.4868;-1.6675;5.9353;7.6264;-0.2969;-0.4448;0.8604;-0.5926;0.1707;0.0629;2023.0;636.7;-221.9;990.4;230.5;-41.09;13.71;2.0;53.172;19.519781;-96.915565;4341.94;0.0;9.677419;16 / 19;99.7;56.0;3.794;43400;2014-11-08 13:55:03:197
-0.9032;7.6591;4.8692;-1.7694;7.4084;6.177;0.8662;0.2507;-1.3078;0.0908;0.0152;0.5103;1645.0;639.2;-223.8;989.0;231.75;-47.15;16.95;2.0;53.461;19.519781;-96.915565;4341.94;0.0;9.677419;16 / 19;99.7;56.0;3.794;43919;2014-11-08 13:55:03:716
-0.3376;6.0082;6.6242;-1.2602;6.6883;7.0603;0.9226;-0.6801;-0.4362;0.1595;0.0626;-0.2101;2117.0;636.8;-221.2;989.8;225.39;-42.14;8.16;2.0;51.699;19.519785;-96.91556;4345.16;0.0;9.677419;16 / 19;99.7;56.0;3.794;44451;2014-11-08 13:55:04:248
-1.2851;6.8151;6.5948;-1.6418;7.1155;6.5455;0.3567;-0.3004;0.0493;0.0786;-0.1068;0.0333;1880.0;638.8;-223.4;988.6;229.43;-46.52;14.08;2.0;52.554;19.519785;-96.91556;4345.16;0.0;9.677419;16 / 19;99.7;56.0;3.794;45014;2014-11-08 13:55:04:811
-0.7763;6.3686;7.3855;-1.3347;6.96;6.7785;0.4255;-0.5387;0.388;-0.0194;0.0096;0.0202;1998.0;637.3;-223.0;989.4;226.86;-44.87;10.76;2.0;55.191;19.519785;-96.91556;4345.16;0.0;9.677419;16 / 19;99.7;56.0;3.794;45524;2014-11-08 13:55:05:321
-0.917;6.9761;6.6828;-1.4392;7.4866;6.1684;0.5222;-0.5105;0.5144;0.1009;0.0368;-0.0549;1751.0;639.1;-223.9;989.0;228.71;-49.44;14.08;2.0;53.087;19.519785;-96.91556;4345.16;0.0;9.677419;16 / 19;99.7;56.0;3.794;46034;2014-11-08 13:55:05:831
-2.8252;7.2227;6.0124;-1.4867;7.7313;5.847;-1.3384;-0.5086;0.1654;0.1686;0.3758;0.3377;1694.0;639.0;-224.3;989.4;228.29;-52.03;14.27;2.0;50.811;19.519785;-96.91556;4345.16;0.0;9.677419;16 / 19;99.7;56.0;3.794;46560;2014-11-08 13:55:06:357
-4.0875;6.2668;4.2234;-1.3286;8.8906;3.9194;-1.9706;-3.4336;2.0864;-0.747;5.1319;1.0384;2029.0;688.4;-223.0;1001.0;232.25;-65.04;18.73;2.0;50.49;19.519785;-96.91556;4345.16;0.0;9.677419;16 / 19;99.7;56.0;3.794;47067;2014-11-08 13:55:06:864
-5.3469;6.5272;8.7442;-5.1688;7.5768;3.4708;-0.1781;-1.0496;5.2735;-0.1142;-2.3367;-0.5611;1469.0;691.9;-225.8;1033.0;269.29;-52.49;63.31;2.0;56.651;19.519785;-96.91556;4345.16;0.0;9.677419;16 / 19;99.7;56.0;3.794;47596;2014-11-08 13:55:07:393
-4.1916;7.0916;-2.7132;-2.8475;5.02;7.9285;-7.3225;1.0642;-3.519;1.6887;5.5769;3.2424;2344.0;691.8;-213.7;1002.8;241.07;-30.79;19.76;2.0;55.059;19.519785;-96.91556;4345.16;0.0;9.677419;16 / 19;99.7;56.0;3.794;48111;2014-11-08 13:55:07:908
-13.62;8.1989;13.0688;-5.945;3.4331;7.0029;-6.5796;5.8049;7.6286;0.7651;1.1968;2.7942;3935.0;689.2;-209.8;1011.8;255.25;-20.49;40.33;2.0;56.046;19.519785;-96.91556;4345.16;0.0;9.677419;16 / 19;99.7;56.0;3.794;48648;2014-11-08 13:55:08:445
-3.5943;6.2956;8.172;2.1536;8.1952;4.9366;-6.6837;-1.6349;3.3003;-3.5716;-4.4177;-0.9273;3002.0;677.5;-237.9;998.8;191.19;-56.69;-23.57;2.0;53.832;19.519785;-96.91556;4345.16;0.0;9.677419;16 / 19;99.7;56.0;3.794;49161;2014-11-08 13:55:08:958
16.5374;-7.0617;-1.2857;9.6132;-1.8504;-0.5772;1.6302;-3.9312;-3.2383;-0.6533;-0.7997;-0.0136;1196.0;627.7;-235.6;1030.3;105.4;-7.17;-95.7;2.0;49.587;19.519794;-96.91556;4341.94;0.0;9.677419;16 / 19;99.7;56.0;3.794;49667;2014-11-08 13:55:09:464
-3.9331;1.5239;-1.3162;-3.5513;8.5183;-3.3161;-0.7531;-7.4479;0.6567;-1.3372;-2.3441;-3.3955;388.0;674.0;-236.8;992.8;343.32;-60.3;133.04;2.0;50.734;19.519794;-96.91556;4341.94;0.0;9.677419;16 / 19;99.7;56.0;3.794;50210;2014-11-08 13:55:10:007
-12.2918;2.1213;9.7707;-7.5275;-6.2278;-0.8496;-4.7643;8.3491;10.6203;-1.9806;-0.5707;-1.6666;712.0;655.9;-179.1;1009.6;236.13;39.42;96.44;2.0;55.998;19.519794;-96.91556;4341.94;0.0;9.677419;16 / 19;99.7;56.0;3.794;50713;2014-11-08 13:55:10:510
-2.8144;-0.9439;1.8346;-6.6977;6.2156;3.5605;3.4333;-9.1757;-0.0739;0.9872;-1.5156;-0.6053;1094.0;658.4;-234.8;987.5;261.08;-7.02;73.46;2.0;58.886;19.519804;-96.91556;4338.71;1.8;12.903226;16 / 19;99.7;56.0;3.794;51260;2014-11-08 13:55:11:057
-6.4212;3.8864;6.1046;-8.0674;1.3761;5.4031;1.6462;2.5103;0.7015;-1.3095;0.1489;-0.2077;1622.0;663.9;-223.4;984.8;258.12;-13.51;50.22;2.0;56.354;19.519804;-96.91556;4338.71;1.8;12.903226;16 / 19;99.7;56.0;3.794;51761;2014-11-08 13:55:11:558
-2.0578;-1.8723;-2.9646;-7.3611;5.1018;3.9944;5.3033;-6.9741;-6.959;0.1201;-1.2631;-0.5185;894.0;658.9;-249.2;1002.7;262.37;-31.35;61.51;2.0;55.898;19.519804;-96.91556;4338.71;1.8;12.903226;16 / 19;99.7;56.0;3.794;52277;2014-11-08 13:55:12:074
-3.8134;9.9012;12.1913;-6.585;4.0202;6.0536;2.7716;5.881;6.1376;3.4075;-1.9659;1.445;811.0;665.4;-247.7;1005.0;255.65;-24.2;47.41;2.0;55.53;19.519804;-96.91556;4338.71;1.8;12.903226;16 / 19;99.7;56.0;3.794;52830;2014-11-08 13:55:12:627
0.0994;8.8651;4.4263;-7.4875;2.8697;5.6456;4.979;6.0959;0.1412;-0.0402;1.5806;0.0213;1117.0;674.2;-245.9;1004.2;258.09;-17.02;52.98;2.0;52.32;19.519802;-96.91554;4341.94;3.6;9.677419;16 / 19;99.7;56.0;3.794;53385;2014-11-08 13:55:13:182
-19.6133;6.11;18.5808;-8.9665;0.5894;3.9274;-10.6468;5.5206;14.6534;-2.7305;1.4038;-0.2674;1126.0;664.8;-249.4;1001.3;258.72;-3.45;66.35;2.0;52.664;19.519802;-96.91554;4341.94;3.6;9.677419;16 / 19;99.7;56.0;3.794;53901;2014-11-08 13:55:13:698
-2.2416;-2.9413;-2.5402;-7.4206;3.3224;5.4833;5.1791;-6.2637;-8.0235;1.6711;-1.2765;2.0333;1534.0;642.3;-248.2;999.0;247.03;-32.84;34.04;2.0;51.31;19.519793;-96.91554;4341.94;3.6;12.903226;16 / 19;99.7;56.0;3.794;54456;2014-11-08 13:55:14:253
-7.2844;9.5026;9.8252;-6.2739;4.5403;6.0161;-1.0104;4.9623;3.8091;0.3779;-2.6408;2.6717;1005.0;661.8;-213.9;978.6;256.38;-27.58;46.2;2.0;53.204;19.519793;-96.91554;4341.94;3.6;12.903226;16 / 19;99.7;56.0;3.794;55058;2014-11-08 13:55:14:855
0.2682;7.841;5.1978;-6.5648;4.3432;5.849;6.5722;0.604;-3.0702;-0.0434;0.184;0.3004;1468.0;696.8;-198.6;1014.9;258.57;-26.29;48.3;2.0;58.456;19.519787;-96.915535;4345.16;3.6;9.677419;16 / 19;99.7;56.0;3.794;55569;2014-11-08 13:55:15:366
-3.9331;4.1761;1.2049;-6.665;4.9395;5.2296;2.732;-0.7634;-4.0247;-1.8405;1.9873;-0.5039;1573.0;696.7;-216.6;1007.6;257.75;-28.26;48.01;2.0;59.107;19.519787;-96.915535;4345.16;3.6;9.677419;16 / 19;99.7;56.0;3.794;56094;2014-11-08 13:55:15:891
-5.7736;6.1932;5.8724;-6.2966;5.5483;5.0734;0.523;0.6449;0.799;1.4922;0.5422;0.4069;1598.0;697.9;-207.5;1014.8;259.69;-34.46;51.14;2.0;62.608;19.519785;-96.91553;4348.39;3.6;12.903226;16 / 19;99.7;56.0;3.794;56646;2014-11-08 13:55:16:443
-3.6847;5.4103;4.0881;-6.1264;5.8522;4.9387;-5.1812;2.3383;4.1928;-1.0788;-0.2112;-0.6139;1684.0;692.9;-207.3;1014.4;259.64;-36.64;51.13;2.0;55.916;19.519785;-96.91553;4348.39;3.6;12.903226;16 / 19;99.7;56.0;3.794;57169;2014-11-08 13:55:16:966
-6.5493;6.1926;7.0198;-5.1361;5.8806;5.9337;-1.7849;0.4329;2.892;1.4868;0.192;-0.2091;1831.0;691.1;-207.5;1008.1;255.79;-39.38;44.6;2.0;48.46;19.519793;-96.91553;4348.39;3.6;12.903226;16 / 19;99.7;56.0;3.794;57707;2014-11-08 13:55:17:504
-7.5322;8.2007;3.3261;-5.5004;7.2649;3.6245;-2.0318;0.9358;-0.2983;-0.9111;1.2043;0.3694;1501.0;697.3;-210.7;1010.3;261.6;-48.28;52.85;2.0;48.983;19.5198;-96.915535;4345.16;3.6;12.903226;16 / 19;99.7;56.0;3.794;58244;2014-11-08 13:55:18:041
-6.4649;6.8965;4.3616;-5.1909;6.4468;5.2596;-1.274;0.4497;-0.8979;-0.2522;-0.1071;0.204;1596.0;448.1;0.1;664.3;263.8;-46.04;48.9;2.0;48.98;19.5198;-96.915535;4345.16;3.6;12.903226;16 / 19;99.7;56.0;3.794;58744;2014-11-08 13:55:18:541
-4.0127;5.8981;2.2494;-4.358;7.5575;4.4791;0.3453;-1.6594;-2.2298;-0.6836;0.5995;-0.0991;1491.0;26.4;-6.4;12.9;279.23;-50.34;42.68;2.0;49.177;19.519804;-96.91555;4345.16;3.6;12.903226;16 / 19;99.7;56.0;3.794;59332;2014-11-08 13:55:19:129
-2.7934;5.8592;2.3924;-3.7634;8.3587;3.4843;1.6964;-2.5543;-2.9006;0.9265;0.8882;0.6061;1249.0;22.1;-10.1;19.2;270.45;-42.42;46.21;2.0;51.447;19.519804;-96.91555;4345.16;3.6;12.903226;16 / 19;99.7;56.0;3.794;59851;2014-11-08 13:55:19:648
-8.4455;6.274;4.9374;-5.5906;7.0227;3.9493;-2.8549;-0.7487;0.9881;0.4775;0.3228;-0.3063;1315.0;22.7;-8.3;21.1;268.48;-45.73;54.76;2.0;51.766;19.519806;-96.91556;4341.94;3.6;12.903226;16 / 19;99.7;56.0;3.794;60359;2014-11-08 13:55:20:156
-8.1169;7.2149;4.8243;-6.6127;5.726;4.4335;-1.5043;1.4889;0.3908;-0.9862;0.4296;0.1108;1340.0;17.4;-10.9;24.1;263.52;-47.11;62.14;2.0;51.302;19.519806;-96.91556;4341.94;3.6;12.903226;16 / 19;99.7;56.0;3.794;60862;2014-11-08 13:55:20:659
-5.9292;6.3099;4.4616;-5.4924;5.4946;5.9844;-0.4368;0.8153;-1.5228;-0.7731;0.828;1.2682;1588.0;19.1;-17.9;13.4;248.87;-30.07;52.85;2.0;52.066;19.519808;-96.915565;4338.71;2.7;12.903226;16 / 19;99.7;56.0;3.794;61385;2014-11-08 13:55:21:182
-5.0159;5.5324;4.3976;-5.9428;6.2887;4.6158;-0.4598;-0.0346;0.077;0.134;0.2778;0.2913;1165.0;6.6;-23.6;12.8;216.08;-39.89;52.16;2.0;52.788;19.519808;-96.915565;4338.71;2.7;12.903226;16 / 19;99.7;56.0;3.794;61906;2014-11-08 13:55:21:703
-3.6003;5.0159;1.4928;-6.0236;6.1015;4.76;0.7728;-1.7707;-0.6131;-0.6842;0.0466;0.5369;814.0;3.0;-24.4;4.4;194.25;-35.7;49.92;2.0;58.378;19.519808;-96.915565;4338.71;2.7;12.903226;15 / 18;99.7;56.0;3.794;62439;2014-11-08 13:55:22:236
-5.3983;7.2472;4.5484;-6.1969;6.1899;4.4107;0.7986;1.0574;0.1377;0.1222;-0.4021;-0.2431;346.0;1.9;-24.8;6.4;196.39;-39.14;54.56;2.0;61.667;19.519808;-96.915565;4338.71;2.7;12.903226;15 / 18;99.7;56.0;3.794;62959;2014-11-08 13:55:22:756
-4.3646;7.3837;3.3788;-6.208;6.4904;3.9378;1.359;1.1982;-0.5046;-0.3406;0.2764;0.0956;128.0;0.5;-24.8;9.5;203.32;-42.27;60.1;2.0;60.373;19.519808;-96.915565;4338.71;2.7;12.903226;15 / 18;99.7;56.0;3.794;63482;2014-11-08 13:55:23:279
-2.8252;6.0238;4.7094;-4.7927;6.9499;4.99;1.9676;-0.926;-0.2806;-0.7348;-0.7438;-0.1726;46.0;-4.2;-24.8;6.0;183.21;-45.13;43.84;2.0;53.73;19.519808;-96.915565;4338.71;2.7;12.903226;15 / 18;99.7;56.0;3.794;63995;2014-11-08 13:55:23:792
-4.0917;3.3782;4.3586;-4.721;7.7753;3.6643;-0.3978;-2.7941;1.0798;-1.269;3.7774;-0.0818;38.0;-10.9;-23.5;3.5;184.46;-56.8;49.84;2.0;48.268;19.519808;-96.915565;4338.71;2.7;12.903226;15 / 18;99.7;56.0;3.794;64510;2014-11-08 13:55:24:307
-5.4935;6.447;2.4654;-5.3024;6.8301;4.6266;-0.1911;-0.3831;-2.1612;-0.4578;0.7622;1.326;29.0;-3.4;-7.9;-20.2;89.34;-39.23;51.46;2.0;49.858;19.519808;-96.915565;4338.71;2.7;12.903226;15 / 18;99.7;56.0;3.794;65050;2014-11-08 13:55:24:847
-5.1996;6.0238;3.8152;-5.7112;7.3725;3.033;0.3182;-1.5953;1.4017;-1.2152;1.012;0.5582;52.0;10.5;-2.9;-20.1;45.5;-48.76;62.22;2.0;58.882;19.519808;-96.915565;4338.71;2.7;12.903226;15 / 18;99.7;56.0;3.794;65565;2014-11-08 13:55:25:362
-4.8207;7.1646;4.9793;-5.3815;6.8506;4.5032;-1.1709;-1.2679;-0.0879;0.5611;-0.853;-0.2189;102.0;16.3;6.5;-13.5;359.12;-44.31;50.08;2.0;53.626;19.519808;-96.915565;4338.71;2.7;12.903226;15 / 18;99.7;56.0;3.794;66073;2014-11-08 13:55:25:870
-4.2677;7.1646;3.5279;-5.0561;7.1246;4.455;0.4714;-0.5743;-0.4328;0.4812;-0.7558;-0.3686;167.0;10.0;5.1;-17.0;25.65;-46.89;44.68;2.0;57.484;19.519808;-96.915565;4338.71;2.7;12.903226;14 / 17;99.7;56.0;3.794;66598;2014-11-08 13:55:26:395
-1.8675;6.4326;1.5688;-4.835;7.8166;3.4196;3.2022;-1.3993;-1.4526;0.5127;-0.7686;-0.1174;198.0;1.0;-7.7;-19.8;76.96;-51.17;58.36;2.0;50.825;19.519808;-96.915565;4338.71;2.7;12.903226;14 / 17;99.7;56.0;3.794;67113;2014-11-08 13:55:26:910
-2.0967;7.2987;3.4213;-4.8509;7.9365;3.1064;2.7542;-0.6378;0.3149;0.2895;-0.2035;-0.2352;239.0;-3.0;-8.8;-18.2;70.23;-50.42;43.05;2.0;53.093;19.519802;-96.915565;4338.71;0.0;9.677419;15 / 18;99.7;56.0;3.794;67625;2014-11-08 13:55:27:422
-7.6189;5.8012;2.241;-6.3779;7.3942;0.9046;-1.3386;-1.6427;-0.807;-0.192;-4.3527;-0.9705;234.0;-2.9;-22.7;-3.3;168.74;-48.94;81.93;2.0;52.815;19.519802;-96.915565;4338.71;0.0;9.677419;15 / 18;99.7;56.0;3.794;68134;2014-11-08 13:55:27:931
-6.6948;6.3961;3.2519;-6.547;5.8555;4.3613;-0.1478;0.5406;-1.1094;0.4642;3.4706;0.4863;911.0;-0.9;-23.2;0.5;180.83;-36.66;56.33;2.0;53.315;19.519802;-96.915565;4338.71;0.0;9.677419;15 / 18;99.7;56.0;3.794;68682;2014-11-08 13:55:28:479
-7.3957;6.1944;-3.3609;-7.507;5.9244;-2.1719;0.0886;-0.1255;-2.2194;0.6831;0.7699;0.2381;286.0;3.8;-24.8;9.0;205.87;-35.47;96.98;2.0;53.128;19.519802;-96.915565;4338.71;0.0;9.677419;15 / 18;99.7;56.0;3.794;69190;2014-11-08 13:55:28:987
2.9491;4.3072;-3.8158;1.8924;9.1154;-3.0821;1.0566;-4.8082;-0.7337;1.4565;5.1591;-2.0799;313.0;-19.8;-13.6;0.0;227.32;-64.32;122.44;2.0;54.587;19.519802;-96.915565;4338.71;0.0;9.677419;15 / 18;99.7;56.0;3.794;69706;2014-11-08 13:55:29:503
2.3852;5.1296;-0.431;0.0101;9.706;-1.4012;2.3751;-4.5765;0.9702;-0.1563;-3.2949;-1.9103;216.0;-6.8;-18.5;-7.6;239.15;-75.36;-140.76;2.0;53.505;19.519802;-96.915565;4338.71;0.0;9.677419;15 / 18;99.7;56.0;3.794;70251;2014-11-08 13:55:30:048
-7.2425;6.177;1.4347;-7.9641;5.5704;1.3093;0.7217;0.6067;0.1254;-0.0455;0.7236;-0.3816;367.0;8.1;-19.1;-13.0;130.21;-35.65;77.12;2.0;52.608;19.519796;-96.915565;4338.71;0.9;12.903226;15 / 18;99.7;56.0;3.794;70806;2014-11-08 13:55:30:603
-7.9326;5.0224;1.3856;-8.3093;5.0708;1.1888;0.3767;-0.0483;0.1969;0.0573;-0.3497;-0.0695;336.0;10.1;-18.8;-12.3;134.5;-30.7;83.16;2.0;52.808;19.519796;-96.915565;4338.71;0.9;12.903226;15 / 18;99.7;56.0;3.794;71572;2014-11-08 13:55:31:369
-4.0618;5.1924;7.4675;-4.4881;5.1475;7.0378;0.4264;0.0449;0.4298;-0.2314;-0.5976;-0.3752;1287.0;-12.6;-12.8;-10.2;122.25;-31.66;32.53;2.0;64.371;19.519796;-96.915565;4338.71;0.9;12.903226;15 / 18;99.7;56.0;3.794;72136;2014-11-08 13:55:31:933
-2.7569;2.6324;4.2964;-0.4913;7.2814;6.5506;-2.2656;-4.649;-2.2542;-0.5526;-1.0362;-0.1268;2082.0;-21.2;-16.7;11.8;137.46;-48.26;5.1;2.0;61.618;19.519796;-96.915565;4338.71;0.9;12.903226;15 / 18;99.7;56.0;3.794;72786;2014-11-08 13:55:32:583
0.9864;9.4751;3.3758;-0.1345;9.3856;2.8394;-0.3252;-1.2292;-1.355;2.0189;-0.5183;-0.0104;2069.0;-16.6;-17.5;24.2;150.22;-58.34;0.36;2.0;56.63;19.519796;-96.915565;4338.71;0.9;12.903226;15 / 18;98.2;56.0;3.691;73304;2014-11-08 13:55:33:101
0.076;9.4703;1.8489;-0.1278;9.5882;2.0545;0.2756;-0.1137;-0.6228;0.0823;-0.0213;0.0253;1159.0;-20.0;-11.9;31.6;152.79;-77.88;3.56;2.0;53.862;19.519796;-96.915565;4338.71;0.9;12.903226;15 / 18;98.2;56.0;3.691;73818;2014-11-08 13:55:33:615
0.0988;9.6283;2.0195;-0.0897;9.5416;2.2627;0.265;0.1052;-0.3462;0.012;0.0463;-0.0138;1152.0;-16.8;-12.3;30.4;154.14;-76.65;2.27;2.0;51.839;19.519796;-96.915565;4338.71;0.9;12.903226;15 / 18;98.2;56.0;3.691;74349;2014-11-08 13:55:34:146
0.2496;9.6067;2.1656;-0.0157;9.5083;2.4005;0.236;0.1261;-0.4325;0.0658;0.016;-0.0317;1191.0;-16.9;-12.7;30.0;152.57;-75.83;0.37;2.0;51.783;19.519796;-96.915565;4338.71;0.9;12.903226;15 / 18;98.2;56.0;3.691;74900;2014-11-08 13:55:34:697
0.24;9.6283;1.7083;0.072;9.5296;2.3136;0.168;0.0987;-0.6053;0.0935;-0.037;-0.041;1177.0;-16.7;-12.7;30.0;150.75;-76.02;-1.55;2.0;51.254;19.519796;-96.915565;4338.71;0.9;12.903226;15 / 18;98.2;55.0;3.79;75434;2014-11-08 13:55:35:231
0.8374;9.0621;3.9732;0.7996;9.1044;3.5553;0.0378;-0.0424;0.4179;-0.3944;-0.1411;-0.0977;1432.0;-16.5;-13.5;29.5;141.57;-72.34;-13.23;2.0;51.565;19.519796;-96.915565;4338.71;0.9;12.903226;15 / 18;98.2;55.0;3.79;75977;2014-11-08 13:55:35:774
-0.3124;8.3911;4.6513;-0.0113;8.7582;4.4118;-0.3012;-0.3671;0.2395;0.1063;-0.3076;-0.1087;1781.0;-12.9;-17.7;21.9;156.65;-63.64;1.73;2.0;51.287;19.519796;-96.915565;4338.71;0.9;12.903226;15 / 18;98.2;55.0;3.79;76477;2014-11-08 13:55:36:274
0.6901;8.7131;4.2814;0.9348;8.4787;4.8383;-0.2447;0.2344;-0.5568;-0.0972;-0.2368;-0.1262;1923.0;-7.2;-19.5;20.7;157.51;-59.84;-10.94;2.0;53.41;19.519796;-96.915565;4338.71;0.9;12.903226;15 / 18;98.2;55.0;3.79;76991;2014-11-08 13:55:36:788
0.7362;8.4348;4.4706;0.8513;8.458;4.8896;0.0079;-0.0108;-0.1173;-0.0152;-0.033;-0.0578;1909.0;-5.2;-20.8;19.4;162.64;-59.55;-9.75;2.0;53.418;19.519796;-96.915565;4338.71;0.9;12.903226;15 / 18;98.2;55.0;3.79;77511;2014-11-08 13:55:37:308
0.9942;8.4096;4.4185;0.7586;8.4827;4.8619;0.2356;-0.0731;-0.4434;0.0413;0.1225;-0.0104;1887.0;-7.8;-21.2;19.4;157.14;-59.76;-8.9;2.0;54.213;19.519796;-96.915565;4338.71;0.9;12.903226;15 / 18;98.2;55.0;3.79;78067;2014-11-08 13:55:37:864
1.0271;8.91;4.0869;0.5649;8.3342;5.1373;0.4622;0.5758;-1.0504;-0.0716;0.0972;-0.0482;1893.0;-3.5;-21.6;18.1;169.21;-58.27;-6.59;2.0;52.265;19.519796;-96.915565;4338.71;0.9;12.903226;15 / 18;98.2;55.0;3.79;78589;2014-11-08 13:55:38:386
0.8906;8.0056;4.4155;1.9509;8.4583;4.5632;-1.1943;-1.5073;-0.2141;-0.2543;0.0868;0.9792;1423.0;-10.7;-19.9;19.9;141.07;-59.6;-23.15;2.0;52.541;19.519796;-96.915565;4338.71;0.9;12.903226;15 / 18;98.2;55.0;3.79;79127;2014-11-08 13:55:38:924
3.1346;10.4052;5.3546;2.5147;8.0412;5.0185;0.6199;2.364;0.3361;0.5169;0.1819;-0.3872;862.0;-14.6;-17.8;19.1;130.5;-55.08;-26.61;2.0;53.131;19.519796;-96.915565;4338.71;0.9;12.903226;15 / 18;98.2;55.0;3.79;79646;2014-11-08 13:55:39:443
3.8583;7.8458;4.6304;3.2833;7.9674;4.681;0.575;-0.1216;-0.0506;-0.3997;-0.2615;-1.0397;223.0;-11.8;-18.7;20.9;132.57;-59.22;-31.98;2.0;61.659;19.519796;-96.915565;4338.71;0.9;12.903226;15 / 18;98.2;55.0;3.79;80179;2014-11-08 13:55:39:976
1.8597;8.2247;2.332;2.1166;9.0661;3.0816;-0.2569;-0.8414;-0.7497;-0.8519;0.2602;-0.2538;147.0;-0.4;-22.5;21.1;160.08;-65.45;-26.47;2.0;57.084;19.5198;-96.91557;4341.94;0.9;16.129032;15 / 18;98.2;55.0;3.79;80690;2014-11-08 13:55:40:487
1.3252;9.5559;5.184;1.1255;8.3622;4.9977;0.1996;1.1937;0.1863;-0.0445;0.0346;0.0567;35.0;6.4;-26.4;11.9;187.42;-58.51;-12.69;2.0;46.343;19.5198;-96.91557;4341.94;0.9;16.129032;15 / 18;98.2;55.0;3.79;81218;2014-11-08 13:55:41:015
1.7675;6.4195;3.4554;2.2035;8.7818;3.7677;-0.436;-2.3623;-0.3123;0.3806;0.4509;0.4402;25.0;-8.3;-23.5;19.8;169.55;-64.57;-13.0;2.0;50.211;19.5198;-96.91557;4341.94;0.9;16.129032;15 / 18;98.2;55.0;3.79;81720;2014-11-08 13:55:41:517
0.6195;5.9993;3.6667;2.1294;8.2389;4.874;0.8651;-0.3059;-1.7445;0.0674;-0.0184;0.3843;33.0;-12.1;-21.7;17.1;139.69;-57.15;-23.6;2.0;48.003;19.519796;-96.91558;4341.94;1.8;16.129032;15 / 18;98.2;55.0;3.79;82242;2014-11-08 13:55:42:039
2.1458;5.4731;2.6737;3.0654;8.571;3.6485;-1.213;-2.6546;0.3664;0.7135;-0.3878;1.5878;45.0;-21.1;-18.1;21.9;111.09;-60.93;-40.04;2.0;47.121;19.519796;-96.91558;4341.94;1.8;16.129032;15 / 18;98.2;55.0;3.79;82745;2014-11-08 13:55:42:542
3.9301;6.0214;5.7976;4.5913;7.7162;3.9435;0.0413;-1.4099;0.7159;-0.5015;0.1731;-0.5225;56.0;-28.2;-12.5;21.5;87.4;-56.87;-53.51;2.0;46.73;19.51979;-96.91557;4341.94;1.8;16.129032;15 / 18;98.2;55.0;3.79;83285;2014-11-08 13:55:43:082
5.4295;10.6015;5.3618;4.1254;7.5192;4.7553;1.8103;0.7145;4.3553;0.0562;-0.123;-0.1137;42.0;-29.7;-15.9;14.3;98.89;-46.78;-40.82;2.0;45.742;19.51979;-96.91557;4341.94;1.8;16.129032;15 / 18;98.2;55.0;3.79;83791;2014-11-08 13:55:43:588
2.6294;6.8953;3.4704;4.9437;7.2703;4.3443;-2.3143;-0.375;-0.8739;-0.2426;-0.1278;-0.0423;56.0;-43.7;-8.1;15.3;85.93;-49.09;-42.08;2.0;47.445;19.51979;-96.91557;4341.94;1.8;16.129032;15 / 18;98.2;55.0;3.79;84346;2014-11-08 13:55:44:143
4.6495;8.1804;4.4257;5.246;7.0589;4.3385;-0.5964;1.1215;0.0872;1.2541;1.0749;0.4783;8.0;-43.3;-4.1;3.8;60.93;-44.35;-48.06;2.0;46.395;19.51979;-96.91557;4341.94;1.8;16.129032;15 / 18;98.2;55.0;3.79;84904;2014-11-08 13:55:44:701
4.3072;5.5815;3.7008;5.6463;6.7423;4.3394;-1.3391;-1.1609;-0.6386;-0.2112;-0.6908;0.2008;19.0;-37.7;-12.8;-0.8;62.39;-43.43;-52.46;2.0;37.186;19.51978;-96.915565;4338.71;1.8;19.35484;15 / 18;98.2;55.0;3.79;85428;2014-11-08 13:55:45:225
5.114;10.24;3.374;5.2131;7.5373;3.4905;-0.0991;2.7027;-0.1165;0.812;0.9654;-0.5105;33.0;-37.7;-9.2;11.6;66.73;-50.23;-56.2;2.0;48.328;19.51978;-96.915565;4338.71;1.8;19.35484;15 / 18;98.2;55.0;3.79;85953;2014-11-08 13:55:45:750
4.9632;5.3283;5.2535;4.778;7.1054;4.7806;-2.8596;-1.5215;-4.4301;1.0474;-0.6258;0.3971;93.0;-37.1;-8.4;7.5;73.48;-47.2;-48.77;2.0;45.867;19.51978;-96.915565;4338.71;1.8;19.35484;15 / 18;98.2;55.0;3.79;86493;2014-11-08 13:55:46:290
2.4241;8.4078;2.4361;4.016;7.567;4.7731;-1.5918;0.8408;-2.337;-1.2626;-0.9332;-0.1169;96.0;-34.2;-9.0;14.0;81.06;-54.28;-43.3;2.0;39.59;19.51978;-96.915565;4338.71;1.8;19.35484;15 / 18;98.2;55.0;3.79;86993;2014-11-08 13:55:46:790
7.1994;12.4133;5.2888;4.4425;7.6662;4.2029;2.7569;4.7471;1.0859;-0.4466;-0.6557;0.0575;80.0;-33.3;-8.8;21.3;76.52;-53.68;-52.47;2.0;40.069;19.519775;-96.915565;4335.48;1.8;22.580645;15 / 18;98.2;55.0;3.79;87509;2014-11-08 13:55:47:306
3.8026;6.8839;5.8347;5.3427;6.6762;4.8015;-1.5401;0.2078;1.0332;-0.3646;-0.1289;0.8546;46.0;-38.0;-3.9;19.9;86.45;-51.69;-44.18;2.0;38.996;19.519775;-96.915565;4335.48;1.8;22.580645;15 / 18;98.2;55.0;3.79;88050;2014-11-08 13:55:47:847
1.582;4.6471;-0.6219;5.0106;7.0353;4.6442;-3.4287;-2.3882;-5.2661;0.4525;-0.2317;0.3196;56.0;-43.5;1.6;18.6;78.79;-41.3;-39.24;2.0;62.035;19.519775;-96.915565;4335.48;1.8;22.580645;15 / 18;98.2;55.0;3.79;88589;2014-11-08 13:55:48:386
4.8147;6.256;4.7615;5.0278;6.6229;5.1989;2.5002;3.9559;0.0935;0.4455;0.3819;-0.3915;30.0;-47.2;11.3;22.3;66.45;-37.11;-47.47;2.0;56.94;19.519775;-96.915565;4335.48;1.8;22.580645;15 / 18;98.2;55.0;3.79;89123;2014-11-08 13:55:48:920
2.8563;5.8939;2.0728;4.5259;6.7011;5.5481;-0.0863;-1.0431;1.1081;-0.918;0.5206;-1.0591;18.0;-50.1;15.2;15.1;61.37;-47.01;-42.15;2.0;42.284;19.51977;-96.915565;4332.26;1.8;25.806452;15 / 18;98.2;55.0;3.79;89645;2014-11-08 13:55:49:442
13.195;19.6127;15.032;3.0887;7.6549;5.2946;10.1064;11.9578;9.7374;1.8251;-2.1598;-1.0871;21.0;-47.2;10.2;12.0;74.06;-48.66;-25.4;2.0;39.283;19.51977;-96.915565;4332.26;1.8;25.806452;15 / 18;98.2;55.0;3.79;90149;2014-11-08 13:55:49:946
9.1644;12.5307;8.1618;4.3688;7.6717;4.2696;4.7956;4.859;3.8922;-0.4509;-0.0967;-1.4112;12.0;-45.6;6.7;28.6;77.57;-51.53;-42.3;2.0;45.146;19.519768;-96.915565;4332.26;1.8;29.032257;15 / 18;98.2;55.0;3.79;90670;2014-11-08 13:55:50:467
4.8447;8.0128;9.5493;5.4154;6.5446;4.9001;-0.5707;1.4682;4.6491;1.31;-1.9769;-0.5553;14.0;-26.5;-13.9;22.3;97.66;-43.4;-47.85;2.0;42.346;19.519768;-96.915565;4332.26;1.8;29.032257;15 / 18;98.2;55.0;3.79;91184;2014-11-08 13:55:50:981
3.2519;2.2918;-0.0359;4.6528;7.7194;3.8642;-2.1908;-4.3872;-4.7196;-0.3997;-1.6325;-0.7057;15.0;-7.2;-22.8;17.7;131.85;-42.58;-46.41;2.0;40.482;19.519768;-96.91557;4332.26;1.8;32.258064;15 / 18;98.2;55.0;3.79;91685;2014-11-08 13:55:51:482
19.4439;19.6127;16.1004;4.4684;8.0758;3.3145;14.9755;11.5369;12.7859;2.0829;-0.5015;-0.9643;7.0;-0.5;-22.8;16.4;148.41;-55.44;-53.43;2.0;47.271;19.519768;-96.91557;4332.26;1.8;32.258064;15 / 18;98.2;55.0;3.79;92247;2014-11-08 13:55:52:044
6.9222;9.5026;5.7604;5.5893;6.9764;4.0323;1.333;2.5262;1.7281;0.8338;-0.5947;-0.4826;3.0;-2.1;-21.1;-10.0;198.12;-35.7;-60.71;2.0;49.533;19.519768;-96.91557;4332.26;1.8;32.258064;15 / 18;98.2;55.0;3.79;92775;2014-11-08 13:55:52:572
4.9752;4.637;1.1809;6.2812;6.6118;3.6056;-1.306;-1.9749;-2.4247;-1.3318;-0.5041;-0.6237;1.0;-2.2;-22.6;-4.1;188.45;-41.61;-55.56;2.0;33.368;19.519768;-96.91558;4332.26;1.8;41.935486;15 / 18;98.2;55.0;3.79;93380;2014-11-08 13:55:53:177
9.9778;6.5092;5.5342;6.6222;5.9265;4.1465;3.3556;0.5828;1.3877;-0.3081;-0.7997;-1.0453;2.0;-5.2;-12.0;-17.4;262.5;-37.18;-57.95;2.0;37.669;19.519768;-96.91558;4332.26;1.8;41.935486;15 / 18;98.2;55.0;3.79;93976;2014-11-08 13:55:53:773
5.3714;6.836;5.1242;7.9297;4.7464;3.2806;-1.828;1.9989;1.8925;-1.6743;-1.5931;-0.8988;9.0;-42.8;24.7;0.1;21.8;-28.95;-67.52;2.0;35.126;19.51977;-96.91559;4329.03;1.8;48.387096;15 / 18;98.2;55.0;3.79;94562;2014-11-08 13:55:54:359
4.8237;6.1375;4.7884;6.6891;7.0468;1.33;-1.8654;-0.9092;3.4584;0.7342;-0.776;-0.3166;52.0;-50.5;22.1;21.3;39.38;-42.97;-69.64;2.0;39.941;19.51977;-96.91559;4329.03;1.8;48.387096;15 / 18;98.2;55.0;3.79;95100;2014-11-08 13:55:54:897
7.4777;5.0488;1.1492;7.228;5.6871;3.4035;0.2497;-0.6383;-2.2543;0.1755;0.3657;-0.138;74.0;-51.3;25.8;15.5;34.54;-37.45;-70.51;2.0;32.566;19.519772;-96.9156;4329.03;1.8;54.83871;15 / 18;98.2;55.0;3.79;95615;2014-11-08 13:55:55:412
5.4205;7.0815;6.2207;7.208;6.6362;0.4202;-1.7875;0.4453;5.8005;1.8027;1.8986;-0.7417;26.0;-51.7;23.9;14.3;27.22;-39.59;-79.79;2.0;34.421;19.519772;-96.9156;4329.03;1.8;54.83871;15 / 18;98.2;55.0;3.79;96168;2014-11-08 13:55:55:965
11.1965;7.7494;9.4457;7.5582;4.6358;4.1896;3.6383;3.1136;5.2561;-2.9686;0.4293;0.9262;4.0;-35.0;19.2;-9.4;340.51;-51.84;-97.49;2.0;42.367;19.519773;-96.91561;4329.03;1.8;64.51613;15 / 18;98.2;55.0;3.79;96727;2014-11-08 13:55:56:524
9.3721;3.7673;3.4488;6.3104;6.1941;4.2405;-2.2255;-6.9946;-3.0927;-2.0845;1.9604;-0.0695;3.0;-8.9;-11.0;-18.4;322.34;-39.17;-56.1;2.0;53.726;19.51978;-96.91563;4329.03;1.8;70.96774;15 / 18;98.2;55.0;3.79;97236;2014-11-08 13:55:57:033
6.4057;6.2159;1.722;6.8011;6.1978;3.3915;-0.3954;0.0182;-1.6695;1.1247;-0.2027;0.6077;10.0;-8.8;-4.5;-22.1;297.61;-39.2;-63.5;2.0;44.83;19.51978;-96.91563;4329.03;1.8;70.96774;15 / 18;98.2;55.0;3.79;97765;2014-11-08 13:55:57:562
8.2205;4.6298;3.2783;7.1748;5.7364;3.4332;1.0457;-1.1066;-0.155;-1.5007;0.7422;0.1603;11.0;4.6;-22.0;-13.7;221.11;-35.8;-64.43;2.0;44.335;19.519793;-96.91565;4325.81;4.5;70.96774;15 / 18;98.2;55.0;3.79;98646;2014-11-08 13:55:58:443
3.7948;4.4161;2.818;6.8343;6.6166;2.3841;-3.0395;-2.2005;0.4339;1.3329;0.4059;-0.3582;18.0;1.3;-20.6;-10.2;215.08;-42.43;-70.77;2.0;42.438;19.519793;-96.91565;4325.81;4.5;70.96774;15 / 18;98.2;55.0;3.79;99226;2014-11-08 13:55:59:023
4.9752;3.9241;0.8308;7.296;5.2702;3.894;-2.3209;-1.3461;-3.0632;0.1233;0.2045;0.0016;24.0;1.2;-21.2;-9.2;208.06;-33.03;-61.8;2.0;40.579;19.519796;-96.91567;4325.81;4.5;80.64516;15 / 18;98.2;55.0;3.79;99748;2014-11-08 13:55:59:545
6.1106;5.4384;3.4728;7.133;5.6852;3.6012;-1.0224;-0.2468;-0.1284;1.2802;0.4357;-0.0543;23.0;-0.3;-16.7;-10.3;218.46;-35.43;-63.21;2.0;38.95;19.5198;-96.91569;4325.81;4.5;90.322586;15 / 18;98.2;55.0;3.79;100301;2014-11-08 13:56:00:098
13.7828;8.2139;7.267;7.1666;4.2521;5.1701;6.6162;3.9618;2.0969;0.3971;1.1241;2.0126;26.0;1.0;-20.1;-5.5;198.56;-40.36;-55.19;2.0;35.124;19.5198;-96.91569;4325.81;4.5;90.322586;15 / 18;98.2;55.0;3.79;100803;2014-11-08 13:56:00:600
7.613;4.9237;4.8548;8.0895;3.9601;3.8792;-0.4765;0.9636;0.9756;-0.787;-1.2229;-0.1987;20.0;-5.2;-16.0;-8.1;200.57;-23.97;-58.44;2.0;35.032;19.519804;-96.915695;4325.81;4.5;90.322586;14 / 18;98.2;55.0;3.79;101325;2014-11-08 13:56:01:122
8.9549;5.6054;4.9231;6.9357;6.1749;3.1523;2.0192;-0.5695;1.7708;-0.7939;0.3814;-0.396;26.0;-6.2;-17.0;-3.1;192.32;-34.46;-63.4;2.0;41.105;19.519804;-96.915695;4325.81;4.5;90.322586;14 / 18;98.2;55.0;3.79;101841;2014-11-08 13:56:01:638
-0.0551;5.3947;-0.6399;7.357;4.9718;4.1625;-4.4463;1.7296;-2.9642;-0.8392;1.0887;-0.4535;16.0;-7.8;-11.1;-11.0;237.89;-30.46;-60.5;2.0;36.358;19.519812;-96.91571;4325.81;4.5;93.548386;14 / 19;98.2;55.0;3.79;102352;2014-11-08 13:56:02:149
4.713;-0.8068;-0.1275;7.1659;5.3242;4.0587;-2.4529;-6.131;-4.1862;-1.5944;-0.1377;0.2194;19.0;0.2;-19.7;-7.4;198.31;-38.52;-58.06;2.0;52.293;19.519812;-96.91571;4325.81;4.5;93.548386;14 / 19;98.2;55.0;3.79;102857;2014-11-08 13:56:02:654
8.3252;17.2137;12.6546;5.5844;6.8586;4.2361;5.8773;4.7975;5.5826;0.8179;2.0477;-1.9678;8.0;-3.8;-14.7;-13.1;251.83;-38.77;-58.72;2.0;42.748;19.519804;-96.91573;4322.58;4.5;83.87097;14 / 19;98.2;55.0;3.79;103357;2014-11-08 13:56:03:154
3.5297;5.2433;2.0022;5.7504;6.7817;4.1367;0.4626;1.6812;2.6772;-1.8251;0.1949;0.4463;10.0;-8.1;-17.7;-7.3;190.08;-43.75;-54.27;2.0;52.687;19.519804;-96.91573;4322.58;4.5;83.87097;14 / 19;98.2;55.0;3.79;103899;2014-11-08 13:56:03:696
2.8718;4.6753;1.5628;5.4236;7.1877;3.8848;-2.5518;-2.5124;-2.322;1.2695;0.3491;0.9593;10.0;-17.5;-16.3;-3.8;84.52;-46.29;-54.57;2.0;42.522;19.519793;-96.91577;4322.58;4.5;83.87097;14 / 19;98.2;55.0;3.79;104467;2014-11-08 13:56:04:264
5.7096;4.7423;2.1123;5.9777;6.0765;4.849;1.61;-0.3333;-2.5818;0.3406;-0.0362;0.285;9.0;-31.7;-6.1;0.9;51.08;-45.29;-57.48;2.0;38.124;19.519793;-96.91577;4322.58;4.5;83.87097;14 / 19;98.2;55.0;3.79;105026;2014-11-08 13:56:04:823
6.3279;5.6629;4.6483;6.1162;6.0788;4.6701;1.8438;1.2041;3.3931;-0.8733;-0.2245;-0.3252;8.0;-29.1;-13.3;1.0;58.88;-39.22;-54.35;2.0;42.7;19.519775;-96.9158;4322.58;5.4;64.51613;13 / 19;98.2;55.0;3.79;105532;2014-11-08 13:56:05:329
8.5862;6.9097;3.2495;5.849;6.6608;4.1944;2.7372;0.2488;-0.9448;-0.1292;-0.4722;0.0421;8.0;-14.8;-27.4;-0.6;111.36;-42.37;-51.6;2.0;48.477;19.519775;-96.9158;4322.58;5.4;64.51613;13 / 19;98.2;55.0;3.79;106085;2014-11-08 13:56:05:882
4.6699;4.4406;2.6504;6.6484;5.7362;4.3664;0.0992;1.2547;-0.9505;-0.9601;-0.8559;-0.3129;5.0;-11.8;-22.0;-15.9;224.78;-35.8;-56.7;2.0;37.948;19.519764;-96.91582;4319.35;5.4;58.064514;13 / 19;98.2;55.0;3.79;106600;2014-11-08 13:56:06:397
4.3401;5.3271;3.0352;5.6355;7.2698;3.4003;-1.2954;-1.9427;-0.3651;0.3529;-0.3984;-0.5092;9.0;-10.9;-15.6;-20.9;286.0;-43.51;-54.02;2.0;38.906;19.519764;-96.91582;4319.35;5.4;58.064514;13 / 19;98.2;55.0;3.79;107138;2014-11-08 13:56:06:935
5.5504;3.5829;2.9299;6.135;6.752;3.5976;2.0777;-1.9761;1.7577;-1.5199;-0.6107;-0.2567;16.0;-15.9;-9.7;-19.7;316.1;-46.55;-61.37;2.0;42.763;19.519756;-96.915825;4319.35;4.5;54.83871;12 / 18;98.2;55.0;3.79;107653;2014-11-08 13:56:07:450
8.688;9.3392;7.5992;5.854;5.844;5.2677;2.8274;2.4285;5.0555;2.3646;0.0077;-0.7398;23.0;-32.0;16.3;-15.5;16.0;-30.11;-50.32;2.0;55.07;19.519756;-96.915825;4319.35;4.5;54.83871;12 / 18;98.2;55.0;3.79;108160;2014-11-08 13:56:07:957
3.638;6.8001;3.2657;5.7525;7.6191;2.2425;-2.1145;-0.819;1.0232;0.0514;1.5785;0.4796;24.0;-22.1;-0.2;-15.3;343.46;-50.98;-68.7;2.0;49.875;19.519747;-96.9158;4316.13;4.5;48.387096;12 / 19;98.2;55.0;3.79;108927;2014-11-08 13:56:08:724
4.6346;7.2951;2.7964;5.5902;8.0569;-0.0861;-0.9556;-0.7617;2.8825;3.4166;-1.9153;0.3489;54.0;-40.5;5.2;4.9;6.99;-55.24;-90.88;2.0;46.997;19.519747;-96.91578;4312.9;1.8;38.709675;12 / 19;98.2;55.0;3.79;109483;2014-11-08 13:56:09:280
-1.6352;4.9231;6.4189;1.5642;7.4722;6.1554;-3.1995;-2.5491;0.2634;3.6456;-3.876;-0.1047;34.0;-34.3;5.0;-6.4;51.24;-37.83;0.08;2.0;50.105;19.519747;-96.91578;4312.9;1.8;38.709675;12 / 19;98.2;55.0;3.79;110006;2014-11-08 13:56:09:803
6.5044;2.1608;6.4548;3.9508;7.9966;4.0763;2.5537;-5.8358;2.3785;1.9593;3.7945;1.3089;41.0;-19.0;4.1;-17.2;4.33;-56.31;-44.19;2.0;47.122;19.519764;-96.915695;4319.35;0.0;29.032257;14 / 19;98.2;55.0;3.79;110584;2014-11-08 13:56:10:381
3.8182;5.6108;6.8797;4.4558;2.5813;8.3459;-0.6376;3.0295;-1.4661;0.1936;-0.3491;-0.2698;26.0;3.0;5.5;-21.6;304.54;-28.05;-32.1;2.0;44.902;19.519764;-96.915695;4319.35;0.0;29.032257;14 / 19;98.2;55.0;3.79;111106;2014-11-08 13:56:10:903
7.4124;5.4235;11.5149;5.5808;5.5008;5.8963;-1.6214;-2.8681;0.4128;2.9612;0.3302;0.3537;33.0;-0.6;-10.5;-14.8;259.47;-34.12;-43.43;2.0;44.877;19.519772;-96.915665;4325.81;0.0;25.806452;14 / 19;98.2;55.0;3.79;111616;2014-11-08 13:56:11:413
6.1764;5.6192;2.9556;6.0032;5.0956;5.8453;-3.5875;-0.2719;-2.3894;-1.7926;-0.0607;-0.7289;12.0;6.1;-10.2;-9.3;235.93;-38.12;-51.32;2.0;56.642;19.519772;-96.915665;4325.81;0.0;25.806452;14 / 19;98.2;55.0;3.79;112140;2014-11-08 13:56:11:937
7.5166;3.5093;7.4202;6.4127;5.0714;5.4155;-1.1407;-1.9069;-0.3709;1.8682;0.0759;0.7955;14.0;5.7;-11.9;-12.1;264.21;-25.83;-41.68;2.0;46.111;19.519785;-96.91565;4341.94;0.0;25.806452;13 / 18;98.2;55.0;3.79;112646;2014-11-08 13:56:12:443
9.0758;4.0408;5.1799;6.6381;4.9088;5.2924;2.4377;-0.868;-0.1126;-2.0365;0.9012;-0.4639;6.0;4.9;-21.5;-8.4;208.37;-33.21;-56.82;2.0;51.805;19.519785;-96.91565;4341.94;0.0;25.806452;13 / 18;98.2;55.0;3.79;113185;2014-11-08 13:56:12:982
9.6343;6.9827;6.4308;6.3319;5.4825;5.101;3.3024;1.5002;1.3298;0.7561;0.9473;0.4053;8.0;3.8;-21.8;-15.0;223.95;-33.99;-51.14;2.0;47.662;19.519789;-96.915634;4338.71;0.0;29.032257;13 / 18;98.2;55.0;3.79;113699;2014-11-08 13:56:13:496
8.1451;7.9942;4.9033;6.323;5.2405;5.3598;1.8221;2.7537;-0.4564;-1.3255;0.3419;-0.7899;13.0;1.0;-22.1;-12.5;214.26;-32.83;-53.75;2.0;50.096;19.519793;-96.915634;4338.71;0.0;29.032257;13 / 18;98.2;55.0;3.79;114221;2014-11-08 13:56:14:018
2.065;3.1705;-0.0455;6.3254;5.8111;4.7319;-4.2604;-2.6406;-4.7774;-1.4719;-0.4248;-0.3987;13.0;3.6;-21.5;-10.6;216.92;-36.34;-53.2;2.0;49.511;19.519793;-96.915634;4338.71;0.0;29.032257;13 / 18;98.2;55.0;3.79;114780;2014-11-08 13:56:14:577
19.6127;19.6127;16.3165;4.826;7.9287;3.1649;14.7867;11.684;13.1516;2.3098;1.5641;-0.4764;15.0;0.5;-15.5;-14.7;248.94;-45.07;-53.75;2.0;54.074;19.519793;-96.915634;4332.26;0.0;25.806452;15 / 18;98.2;55.0;3.79;115301;2014-11-08 13:56:15:098
6.0047;8.3989;9.4942;5.9887;6.1094;4.7938;0.0159;2.2894;4.7004;-0.1121;-0.4067;0.0908;16.0;1.0;-13.8;-14.6;245.59;-38.53;-51.32;2.0;54.819;19.519793;-96.915634;4332.26;0.0;25.806452;15 / 18;98.2;55.0;3.79;115830;2014-11-08 13:56:15:627
4.6124;6.4566;4.3515;5.7208;6.3135;4.8562;-4.2382;-2.9329;-2.3877;-0.3912;0.3316;0.6642;13.0;-0.4;-15.4;-11.0;237.42;-39.58;-49.87;2.0;52.843;19.519793;-96.915634;4332.26;0.0;25.806452;15 / 18;98.2;55.0;3.79;116331;2014-11-08 13:56:16:128
3.7619;3.4752;2.7078;6.3305;5.7672;4.7786;-2.5686;-2.292;-2.0708;-0.4296;-0.0724;0.0605;7.0;-3.8;-14.2;-12.6;230.26;-35.97;-52.87;2.0;61.395;19.519793;-96.915634;4332.26;0.0;25.806452;15 / 18;98.2;55.0;3.79;116835;2014-11-08 13:56:16:632
5.8365;3.2226;3.7559;6.4841;6.1382;4.0558;-3.3044;-3.4822;-2.312;1.6062;0.1832;0.4618;5.0;-5.6;-20.7;-7.3;236.63;-36.73;-53.24;2.0;51.547;19.519806;-96.91565;4332.26;0.0;22.580645;15 / 18;98.2;55.0;3.79;117341;2014-11-08 13:56:17:138
8.0098;4.8213;-0.8434;7.7803;5.3562;2.636;-2.4149;-1.5527;-0.4926;-0.6607;0.1158;0.2639;5.0;-12.4;-22.6;-4.0;180.26;-41.15;-68.45;2.0;48.205;19.519806;-96.91565;4332.26;0.0;22.580645;15 / 18;98.2;55.0;3.79;117878;2014-11-08 13:56:17:675
6.1172;8.9633;7.7458;7.0643;5.5874;3.8791;-4.5336;-0.3746;-2.2052;1.6163;0.4479;1.2991;6.0;-14.1;-23.3;2.1;150.14;-30.66;-64.03;2.0;54.807;19.519804;-96.91565;4325.81;0.0;19.35484;15 / 18;98.2;55.0;3.79;118413;2014-11-08 13:56:18:210
5.9011;7.0246;2.238;6.7902;5.4539;4.5076;-0.8891;1.5707;-2.2696;-1.9454;0.2908;0.8144;6.0;-14.5;-23.1;13.9;132.2;-31.94;-55.16;2.0;51.43;19.519804;-96.91565;4325.81;0.0;19.35484;15 / 18;98.2;55.0;3.79;118927;2014-11-08 13:56:18:724
11.6412;6.6026;8.6497;6.6075;5.589;4.6123;5.0337;1.0136;4.0373;0.8711;0.4503;1.249;10.0;-28.8;-15.6;17.4;98.09;-35.88;-56.5;2.0;48.738;19.5198;-96.915665;4319.35;0.0;19.35484;15 / 18;98.2;55.0;3.79;119438;2014-11-08 13:56:19:235
15.3965;7.9727;14.8189;6.6514;4.6079;5.5405;-2.6427;-1.0605;-2.5768;-0.0679;1.4192;-0.1507;18.0;-30.3;-12.6;8.9;92.8;-32.13;-52.61;2.0;48.316;19.5198;-96.915665;4319.35;0.0;19.35484;15 / 18;98.2;55.0;3.79;119943;2014-11-08 13:56:19:740
1.0989;3.2711;6.4997;5.3172;4.623;6.821;-4.2183;-1.3519;-0.3213;-0.2975;0.0727;-0.796;27.0;-16.8;-17.2;-4.2;128.08;-28.13;-37.94;2.0;49.475;19.51979;-96.915665;4316.13;0.0;19.35484;15 / 18;98.2;55.0;3.79;120443;2014-11-08 13:56:20:240
4.2976;8.1145;12.6575;3.8017;4.7752;7.6756;-0.2155;2.2372;5.8772;-0.6879;-2.0512;1.2685;32.0;-18.9;-16.2;5.5;126.83;-28.4;-29.09;2.0;51.628;19.51979;-96.915665;4316.13;0.0;19.35484;15 / 18;98.2;55.0;3.79;120954;2014-11-08 13:56:20:751
3.4219;5.9825;7.6543;2.7164;5.3228;7.7756;0.7055;0.6597;-0.1213;-0.2421;-0.2533;0.1009;30.0;-17.6;-16.1;14.4;128.82;-32.87;-19.26;2.0;53.574;19.519785;-96.91567;4312.9;0.0;19.35484;15 / 18;98.2;55.0;3.79;121459;2014-11-08 13:56:21:256
0.1341;4.8698;6.6673;1.3629;5.6601;7.8915;-1.2288;-0.7903;-1.2243;-0.477;0.2684;0.1782;17.0;-19.2;-16.1;16.7;133.85;-37.44;-10.15;2.0;52.716;19.519785;-96.91567;4312.9;0.0;19.35484;15 / 18;98.2;55.0;3.79;121959;2014-11-08 13:56:21:756
3.6685;11.4239;9.5535;3.2668;7.6721;5.1611;0.4017;3.7518;4.3923;0.2048;0.2908;0.2527;10.0;-22.1;-17.3;18.3;134.26;-40.04;-10.19;2.0;50.071;19.519785;-96.91567;4312.9;0.0;19.35484;15 / 18;98.2;55.0;3.79;122490;2014-11-08 13:56:22:287
1.7178;7.8536;4.3557;4.4159;7.6258;4.3032;-2.4507;0.7476;-0.964;0.388;0.1308;0.4871;5.0;-10.2;-18.2;20.5;130.49;-49.25;-42.39;2.0;49.524;19.519785;-96.91567;4312.9;0.0;19.35484;15 / 18;98.2;55.0;3.79;123006;2014-11-08 13:56:22:803
6.4207;8.6562;8.6131;5.0546;6.4582;5.3771;-2.0594;0.0468;-0.864;-0.2394;1.5076;0.0509;5.0;-17.4;-17.4;13.2;118.09;-41.19;-43.23;2.0;53.087;19.519775;-96.91568;4312.9;0.0;22.580645;16 / 18;98.2;55.0;3.79;123567;2014-11-08 13:56:23:364
0.0144;5.8227;2.0614;4.2804;7.0067;5.3623;-4.2661;-1.184;-3.3009;-0.8951;0.7822;0.6306;7.0;-28.5;-8.8;21.8;99.72;-45.6;-38.6;2.0;51.548;19.519775;-96.91568;4312.9;0.0;22.580645;16 / 18;98.2;55.0;3.79;124102;2014-11-08 13:56:23:899
1.8525;8.7646;2.9359;4.7252;7.1658;4.7428;-2.8727;1.5988;-1.8069;1.3633;-0.3289;0.2093;21.0;-41.1;6.6;30.9;86.12;-39.48;-34.94;2.0;59.176;19.519775;-96.91568;4312.9;0.0;22.580645;15 / 17;98.2;55.0;3.79;124654;2014-11-08 13:56:24:451
8.0595;11.9872;4.2772;4.3757;7.5094;4.5422;1.4444;0.8882;-0.2549;0.6368;0.9438;1.245;29.0;-49.0;20.2;22.7;64.83;-54.3;-41.91;2.0;59.739;19.519775;-96.91568;4312.9;0.0;22.580645;15 / 17;98.2;55.0;3.79;125171;2014-11-08 13:56:24:968
5.7581;7.0892;4.3263;3.6069;7.3814;5.3549;2.1511;-0.2922;-1.0286;0.1888;-0.1044;-0.7017;24.0;-46.8;21.1;11.7;59.53;-47.75;-34.87;2.0;48.936;19.519775;-96.91568;4312.9;0.0;22.580645;16 / 18;98.2;55.0;3.79;125733;2014-11-08 13:56:25:530
3.7092;8.2109;4.464;3.9321;7.847;4.3741;-0.2229;0.3639;0.0899;-0.6879;-0.2879;0.012;24.0;-45.9;17.0;15.2;58.57;-55.28;-43.43;2.0;48.154;19.519775;-96.91568;4312.9;0.0;22.580645;16 / 18;98.2;55.0;3.79;126312;2014-11-08 13:56:26:109
4.2102;7.4903;3.6715;3.496;7.2301;5.628;0.7142;0.2601;-1.9564;0.3129;-0.0538;-0.257;26.0;-45.0;13.8;15.6;69.87;-47.91;-32.13;2.0;47.929;19.519775;-96.91568;4312.9;0.0;22.580645;16 / 18;98.2;55.0;3.79;126846;2014-11-08 13:56:26:643
4.0713;5.3576;2.9592;3.2963;7.8756;4.8249;3.6696;-1.4807;-2.7395;0.0221;-0.3862;-0.1036;30.0;-42.9;8.7;18.3;74.22;-53.43;-34.34;2.0;57.169;19.519775;-96.91568;4312.9;0.0;22.580645;16 / 18;98.2;55.0;3.79;127355;2014-11-08 13:56:27:152
3.2938;4.4897;4.0642;3.5717;6.6884;6.2193;2.9827;2.2179;3.4983;1.3308;-0.1523;-0.5523;27.0;-36.1;0.5;22.4;86.32;-44.71;-35.29;2.0;52.047;19.519775;-96.91568;4312.9;0.0;22.580645;16 / 18;98.2;55.0;3.79;127861;2014-11-08 13:56:27:658
4.8405;8.3534;5.2307;3.8564;6.9183;5.7824;0.9841;1.4351;-0.5517;-0.1419;-0.1103;-0.3318;29.0;-30.7;-3.5;23.2;93.64;-43.93;-35.95;2.0;53.568;19.51977;-96.91568;4306.45;0.0;22.580645;16 / 18;98.2;55.0;3.79;128417;2014-11-08 13:56:28:214
2.2823;7.7069;5.2547;3.9132;6.7953;5.8891;-1.2873;2.0411;0.0599;-0.3273;-0.8061;-0.3894;43.0;-19.8;-11.9;21.5;114.41;-47.68;-34.44;2.0;53.465;19.51977;-96.91568;4306.45;0.0;22.580645;16 / 18;98.2;55.0;3.79;128951;2014-11-08 13:56:28:748
3.3531;6.3997;1.743;4.1809;7.566;4.631;-0.8278;-1.1663;-2.888;-0.9936;-0.2115;-0.1329;71.0;-11.1;-16.8;18.6;127.46;-50.49;-42.08;2.0;53.42;19.51977;-96.91568;4306.45;0.0;22.580645;16 / 18;98.2;55.0;3.79;129522;2014-11-08 13:56:29:319
4.212;6.4709;4.5753;4.3307;7.5738;4.478;-0.1796;-1.0167;0.9331;0.8184;0.3451;0.6914;148.0;-21.2;-15.1;23.9;110.02;-50.56;-44.04;2.0;60.068;19.51977;-96.91568;4306.45;0.0;22.580645;16 / 18;98.2;55.0;3.79;130034;2014-11-08 13:56:29:831
5.114;9.5014;4.9267;3.965;7.736;4.5391;2.5777;2.3521;0.0673;-0.1686;-0.4703;0.2557;142.0;-15.2;-14.6;23.1;117.45;-53.6;-43.51;2.0;59.934;19.519764;-96.91568;4306.45;0.9;35.48387;16 / 17;98.2;55.0;3.79;130549;2014-11-08 13:56:30:346
4.8866;7.9212;3.4285;4.2334;7.1789;5.1684;-0.7866;0.471;-1.3186;0.3017;0.0154;-0.0165;240.0;-13.0;-17.6;19.4;124.7;-47.98;-42.24;2.0;59.998;19.519764;-96.91568;4306.45;0.9;35.48387;16 / 17;98.2;55.0;3.79;131089;2014-11-08 13:56:30:886
2.6558;6.1393;3.7613;4.2773;8.0121;3.6988;-1.6215;-1.8728;0.0625;-0.1111;0.4653;-0.1089;153.0;-19.4;-13.4;27.2;111.62;-53.04;-43.87;2.0;61.781;19.51976;-96.915665;4316.13;0.0;35.48387;16 / 17;98.2;55.0;3.79;131589;2014-11-08 13:56:31:386
5.5749;8.436;2.326;3.9322;7.879;4.3162;1.1373;0.9369;0.6303;-0.9313;0.0879;-0.1846;170.0;-22.1;-12.5;25.0;106.95;-53.46;-42.33;2.0;62.553;19.51976;-96.915665;4316.13;0.0;35.48387;16 / 17;98.2;55.0;3.79;132089;2014-11-08 13:56:31:886
2.7282;8.1511;2.982;3.7848;7.8074;4.5706;-0.6642;3.386;-1.4468;-1.245;-0.2802;0.7321;192.0;-23.2;-12.5;24.4;107.32;-52.76;-39.63;2.0;61.307;19.519754;-96.91566;4316.13;1.8;35.48387;16 / 17;98.2;55.0;3.79;132589;2014-11-08 13:56:32:386
3.2789;8.7281;3.4393;4.0917;8.4345;2.8788;-1.015;-1.8756;0.2532;-0.7055;0.2514;-0.2831;114.0;-29.9;-5.3;31.3;76.66;-59.41;-65.18;2.0;51.403;19.519754;-96.91566;4316.13;1.8;35.48387;16 / 17;98.2;55.0;3.79;133089;2014-11-08 13:56:32:886
3.7816;8.2025;3.7978;4.2654;7.5276;4.6165;-1.3884;-0.6774;-1.5785;-0.331;-0.4011;-0.0453;249.0;-25.2;-10.9;25.5;102.19;-51.37;-44.25;2.0;51.575;19.519747;-96.91566;4316.13;1.8;32.258064;16 / 17;98.2;55.0;3.79;133589;2014-11-08 13:56:33:386
5.9604;6.7271;3.9816;4.5826;7.903;3.5655;-1.5036;-3.594;-0.7308;1.2733;-0.4216;0.3257;258.0;-33.4;-9.6;25.8;102.79;-52.48;-43.27;2.0;52.347;19.519747;-96.91566;4316.13;1.8;32.258064;16 / 17;98.2;55.0;3.79;134090;2014-11-08 13:56:33:887
6.0729;4.549;1.4;4.706;7.0634;4.9124;0.6333;-0.7065;1.5161;-0.8621;0.8189;-0.9638;372.0;-28.4;-9.1;20.1;94.43;-42.58;-45.43;2.0;51.675;19.519735;-96.91565;4319.35;2.7;35.48387;16 / 17;98.2;55.0;3.79;134592;2014-11-08 13:56:34:389
3.5093;8.4503;3.6931;4.3469;7.5715;4.4662;1.1829;2.3029;1.4925;-0.9739;0.6096;-0.2682;362.0;-19.9;-15.1;21.7;110.23;-50.54;-44.22;2.0;52.85;19.519735;-96.91565;4319.35;2.7;35.48387;16 / 17;98.2;55.0;3.79;135092;2014-11-08 13:56:34:889
4.3999;8.8466;6.3728;5.1113;7.1621;4.3301;0.2906;0.461;2.2092;-1.9183;-0.8895;-0.3206;181.0;-16.2;-17.8;20.0;116.6;-46.91;-49.73;2.0;52.511;19.51972;-96.91565;4329.03;1.8;35.48387;16 / 17;98.2;55.0;3.79;135592;2014-11-08 13:56:35:389
2.9018;6.0747;0.24;4.6085;7.7938;3.7669;0.2527;0.8709;0.1553;-1.2125;0.1672;0.3774;270.0;-11.3;-19.9;19.2;124.56;-52.63;-50.74;2.0;51.115;19.51972;-96.91565;4329.03;1.8;35.48387;16 / 17;98.2;55.0;3.79;136092;2014-11-08 13:56:35:889
4.133;4.0474;3.9049;4.4901;7.7029;4.0835;3.9726;-0.2362;0.7995;0.4967;-0.0146;-0.1105;295.0;-13.9;-18.7;20.2;124.35;-49.47;-45.31;2.0;52.299;19.519707;-96.91564;4329.03;2.7;35.48387;16 / 17;98.2;55.0;3.79;136593;2014-11-08 13:56:36:390
7.422;8.2774;6.6505;5.5942;6.6893;4.4865;1.2846;-0.8251;-1.1295;0.1041;-0.1611;-0.3137;228.0;-13.2;-18.8;16.4;115.98;-48.52;-55.26;2.0;51.109;19.519707;-96.91564;4329.03;2.7;35.48387;16 / 17;96.8;55.0;3.805;137093;2014-11-08 13:56:36:890
5.6228;6.8857;3.0406;5.9322;6.7794;3.8755;0.2625;2.1319;-0.4018;0.0791;0.5798;0.0543;202.0;-13.0;-20.6;17.0;123.29;-43.42;-57.48;2.0;55.951;19.519691;-96.915634;4325.81;2.7;32.258064;16 / 17;96.8;55.0;3.805;137593;2014-11-08 13:56:37:390
4.6448;5.8251;5.044;5.2569;6.3602;5.2994;-1.2892;-1.3739;0.6123;0.0141;-0.2208;-0.2778;381.0;-14.4;-19.8;15.0;127.5;-40.43;-44.77;2.0;56.507;19.519691;-96.915634;4325.81;2.7;32.258064;16 / 17;96.8;55.0;3.805;138094;2014-11-08 13:56:37:891
7.7632;9.3679;4.0797;6.1107;7.0259;3.0768;0.6934;-0.7394;0.8239;-0.2107;0.0194;-0.4024;147.0;-16.4;-18.2;22.2;109.31;-45.76;-63.27;2.0;58.051;19.519676;-96.91563;4332.26;2.7;32.258064;15 / 16;96.8;55.0;3.805;138594;2014-11-08 13:56:38:391
5.2271;10.1059;4.5376;4.3907;7.7992;4.008;-0.1939;1.956;-0.1568;-0.0439;-0.0874;-0.4274;205.0;-7.3;-22.1;17.2;110.86;-54.19;-55.19;2.0;59.728;19.519676;-96.91563;4332.26;2.7;32.258064;15 / 16;96.8;55.0;3.805;139094;2014-11-08 13:56:38:891
3.8044;5.9783;2.3715;4.4791;8.0972;3.2469;0.0524;-0.212;0.4396;-0.4487;-0.7609;-0.1441;187.0;-7.2;-22.1;20.2;130.64;-55.66;-54.06;2.0;60.154;19.519665;-96.91562;4332.26;1.8;35.48387;16 / 17;96.8;55.0;3.805;139594;2014-11-08 13:56:39:391
3.5578;5.8448;2.293;4.5007;7.4799;4.4682;0.7722;-0.9953;-1.6666;-0.1973;-0.6807;-0.4682;405.0;1.4;-26.1;7.2;169.09;-47.96;-44.29;2.0;51.016;19.519665;-96.91562;4332.26;1.8;35.48387;16 / 17;96.8;55.0;3.805;140095;2014-11-08 13:56:39:892
7.2574;8.5922;7.8925;4.2167;7.7118;4.3494;0.4144;-1.733;1.1702;0.6485;-0.294;0.1659;540.0;3.5;-27.8;3.3;183.4;-51.46;-45.69;2.0;53.969;19.519651;-96.91562;4329.03;1.8;32.258064;15 / 17;96.8;55.0;3.805;140596;2014-11-08 13:56:40:393
5.2505;8.4539;4.1252;5.1301;7.1921;4.2575;1.7341;0.3605;0.956;0.0471;-0.2847;-0.1462;566.0;6.5;-28.2;-0.4;191.01;-47.17;-50.31;2.0;49.765;19.519651;-96.91562;4329.03;1.8;32.258064;15 / 17;96.8;55.0;3.805;141097;2014-11-08 13:56:40:894
6.3021;9.0285;4.2084;5.1787;7.2255;4.1406;-0.0588;1.2271;-0.6229;0.1798;0.4176;0.2285;558.0;4.9;-27.8;-0.3;190.52;-47.12;-50.15;2.0;55.099;19.51964;-96.91561;4325.81;1.8;32.258064;15 / 17;96.8;55.0;3.805;141597;2014-11-08 13:56:41:394
5.0542;6.447;3.7248;5.6184;7.3548;3.2421;0.648;-0.3773;0.752;0.1792;0.13;0.0128;354.0;-0.4;-27.4;10.7;158.08;-47.87;-56.01;2.0;55.948;19.51964;-96.91561;4325.81;1.8;32.258064;15 / 17;96.8;55.0;3.805;142097;2014-11-08 13:56:41:894
5.3355;6.9186;2.8054;5.5938;6.8965;4.1614;-1.0786;-0.1573;-1.0913;-0.2884;-0.4354;-0.4799;534.0;2.8;-27.0;1.5;180.49;-44.69;-53.35;2.0;52.425;19.519629;-96.91561;4325.81;1.8;32.258064;16 / 17;96.8;55.0;3.805;142597;2014-11-08 13:56:42:394
7.082;5.5378;4.5089;5.942;6.9503;3.5435;-0.7359;-2.3391;1.2774;-1.2546;-1.4155;0.5007;301.0;-2.2;-27.9;-5.5;191.07;-45.13;-59.19;2.0;55.809;19.519629;-96.91561;4325.81;1.8;32.258064;16 / 17;96.8;55.0;3.805;143097;2014-11-08 13:56:42:894
8.9812;1.7555;4.7495;7.8571;2.7046;5.2078;0.1251;-0.2647;-2.7378;-0.7428;-0.5768;-0.2072;90.0;-12.4;4.3;-20.8;312.03;-16.01;-56.46;2.0;51.457;19.519615;-96.91561;4335.48;1.8;32.258064;16 / 17;96.8;55.0;3.805;143598;2014-11-08 13:56:43:395
9.5786;1.0942;5.6066;8.6726;0.54;4.5459;0.8227;-0.5921;0.3851;-0.5436;0.2032;0.0192;52.0;-20.9;14.7;-18.7;336.12;-5.39;-63.73;2.0;53.389;19.519615;-96.91561;4335.48;1.8;32.258064;16 / 17;96.8;55.0;3.805;144098;2014-11-08 13:56:43:895
7.7123;2.6797;4.9877;7.6621;2.7111;5.4876;-1.1207;-0.5334;-0.736;1.1651;0.6442;-0.2738;62.0;-12.4;6.3;-20.0;343.01;-8.18;-56.4;2.0;52.517;19.519608;-96.91562;4335.48;1.8;32.258064;16 / 17;96.8;55.0;3.805;144598;2014-11-08 13:56:44:395
3.9654;7.0485;4.7663;5.0023;7.0751;4.5924;-1.1209;-1.0704;1.7441;2.7044;1.7662;0.7294;233.0;7.6;-22.7;-13.8;224.67;-37.67;-46.3;2.0;51.865;19.519608;-96.91562;4335.48;1.8;32.258064;16 / 17;96.8;55.0;3.805;145098;2014-11-08 13:56:44:895
3.2669;7.5411;4.1815;3.4667;8.3358;3.8298;0.815;0.4625;0.4852;0.0349;1.1872;0.4722;518.0;-1.5;-25.3;18.6;151.23;-58.21;-42.15;2.0;52.432;19.5196;-96.91562;4335.48;0.0;32.258064;16 / 17;96.8;55.0;3.805;145598;2014-11-08 13:56:45:395
4.1916;8.0655;3.5219;3.928;7.7623;4.5264;-0.1325;-0.0786;-0.24;0.2154;0.2517;0.0399;599.0;-9.7;-22.4;20.7;137.25;-54.12;-39.66;2.0;58.687;19.5196;-96.91562;4335.48;0.0;32.258064;16 / 17;96.8;55.0;3.805;146098;2014-11-08 13:56:45:895
4.7465;8.2432;4.3497;4.6359;7.2605;4.6866;-0.9428;-0.1077;0.3639;0.2799;0.3744;0.3699;551.0;-23.2;-15.3;23.6;107.91;-47.76;-44.69;2.0;50.549;19.519596;-96.91561;4338.71;0.9;32.258064;16 / 17;96.8;55.0;3.805;146599;2014-11-08 13:56:46:396
4.2186;7.3813;3.471;4.4037;7.5437;4.4576;0.3782;0.5391;0.9833;0.2005;0.6011;0.1784;483.0;-34.1;-6.6;27.8;91.85;-50.29;-44.65;2.0;50.253;19.519596;-96.91561;4338.71;0.9;32.258064;16 / 17;96.8;55.0;3.805;147099;2014-11-08 13:56:46:896
3.966;6.845;3.7206;4.1739;7.6722;4.4594;0.4;-0.2989;-1.038;0.4434;1.2482;0.432;472.0;-42.9;2.7;25.5;81.42;-51.61;-44.26;2.0;50.672;19.519585;-96.9156;4338.71;0.0;32.258064;17 / 18;96.8;55.0;3.805;147599;2014-11-08 13:56:47:396
4.2156;8.16;4.2802;4.3543;7.6373;4.3453;0.0645;0.3708;-0.2533;0.1457;0.396;-0.2035;298.0;-53.4;11.4;19.1;63.24;-51.15;-45.06;2.0;50.71;19.519585;-96.9156;4338.71;0.0;32.258064;17 / 18;96.8;55.0;3.805;148099;2014-11-08 13:56:47:896
3.7182;7.7991;4.5759;3.5933;7.8288;4.6871;0.1421;-0.0164;-0.4187;0.0237;-0.0051;-0.0389;306.0;-46.3;8.5;13.7;67.37;-52.94;-37.32;2.0;51.256;19.519585;-96.9156;4338.71;0.0;32.258064;17 / 18;96.8;55.0;3.805;148599;2014-11-08 13:56:48:396
3.5476;7.6686;4.6334;3.6737;7.7326;4.7834;-0.0837;0.132;-0.063;0.0184;0.0091;0.1172;315.0;-46.5;8.1;13.3;66.96;-52.05;-37.52;2.0;51.142;19.519585;-96.9156;4338.71;0.0;32.258064;17 / 18;96.8;55.0;3.805;149099;2014-11-08 13:56:48:896
4.0097;7.8063;4.5005;3.7691;7.6649;4.818;0.0731;-0.006;-0.5877;0.0051;0.0381;-0.0154;308.0;-46.5;9.3;12.5;66.19;-51.31;-37.72;2.0;50.911;19.519585;-96.9156;4338.71;0.0;32.258064;16 / 17;96.8;55.0;3.805;149599;2014-11-08 13:56:49:396
4.0384;7.8296;4.5412;3.795;7.6799;4.7737;-0.059;-0.0907;-0.1277;0.0674;0.0117;-0.0258;310.0;-46.3;9.3;12.1;64.46;-51.55;-38.48;2.0;50.669;19.519585;-96.9156;4338.71;0.0;32.258064;16 / 17;96.8;55.0;3.805;150100;2014-11-08 13:56:49:897
3.811;7.5872;4.47;3.8218;7.7052;4.711;0.1755;0.0885;-0.2642;0.0972;0.0053;-0.0037;308.0;-46.6;9.3;12.5;65.29;-51.72;-38.8;2.0;50.052;19.519585;-96.9156;4338.71;0.0;32.258064;17 / 18;96.8;55.0;3.805;150600;2014-11-08 13:56:50:397
3.9558;7.7261;4.5358;3.8982;7.6938;4.6669;0.0164;-0.0901;-0.0076;0.0796;0.0053;-0.0093;312.0;-46.8;9.7;12.5;63.56;-51.82;-39.94;2.0;50.269;19.519585;-96.9156;4338.71;0.0;32.258064;17 / 18;96.8;55.0;3.805;151100;2014-11-08 13:56:50:897
4.0019;7.756;4.4801;3.9157;7.7111;4.6235;-0.0652;-0.1203;-0.1913;0.0242;0.0197;-0.0482;310.0;-46.6;9.7;12.9;63.3;-51.84;-40.26;2.0;49.156;19.519585;-96.9156;4338.71;0.0;32.258064;17 / 18;96.8;55.0;3.805;151600;2014-11-08 13:56:51:397
3.9247;7.7291;4.555;3.9176;7.7365;4.5791;0.081;-0.018;-0.3202;-0.1015;0.0224;-0.0136;308.0;-46.5;9.7;12.9;63.25;-52.05;-40.46;2.0;50.76;19.519585;-96.9156;4338.71;0.0;32.258064;17 / 18;96.8;55.0;3.805;152100;2014-11-08 13:56:51:897
3.8708;7.6321;4.0833;3.9316;7.7743;4.5026;0.156;0.14;0.3848;0.078;0.032;-0.0338;304.0;-46.8;9.7;12.9;62.54;-52.44;-41.13;2.0;57.946;19.519585;-96.9156;4338.71;0.0;32.258064;18 / 18;96.8;55.0;3.805;152600;2014-11-08 13:56:52:397
3.9301;7.7303;4.6035;3.9475;7.7627;4.5086;-0.151;-0.1909;-0.1665;0.0594;0.0011;0.0029;307.0;-46.7;9.3;12.9;63.12;-52.33;-41.2;2.0;54.442;19.519585;-96.9156;4338.71;0.0;32.258064;18 / 18;96.8;55.0;3.805;153101;2014-11-08 13:56:52:898
3.9211;7.7452;4.4855;3.9648;7.7591;4.4997;0.0709;-0.0409;-0.0931;-0.0067;0.0178;-0.0511;309.0;-46.7;9.3;12.9;62.97;-52.3;-41.38;2.0;50.294;19.519585;-96.9156;4338.71;0.0;32.258064;18 / 18;96.8;55.0;3.805;153602;2014-11-08 13:56:53:399
3.8421;7.6213;4.2114;3.9621;7.7615;4.4979;-0.101;-0.029;0.1785;-0.0067;0.0266;-0.0258;315.0;-45.9;9.3;12.9;63.13;-52.32;-41.38;2.0;49.936;19.519585;-96.9156;4338.71;0.0;32.258064;18 / 18;96.8;55.0;3.805;154102;2014-11-08 13:56:53:899
4.1037;7.6507;4.5083;3.9677;7.7574;4.5;-0.119;-0.1479;0.0553;0.0626;0.0352;-0.0354;317.0;-46.5;9.3;12.9;63.17;-52.21;-41.34;2.0;48.853;19.519585;-96.9156;4338.71;0.0;32.258064;18 / 18;96.8;55.0;3.805;154602;2014-11-08 13:56:54:399
3.7284;7.416;4.2665;3.9703;7.7605;4.4924;-0.0922;-0.2326;-0.0378;0.0376;0.0091;0.0256;311.0;-46.7;9.7;12.9;62.27;-52.31;-41.47;2.0;49.853;19.519585;-96.9156;4338.71;0.0;32.258064;18 / 18;96.8;55.0;3.805;155102;2014-11-08 13:56:54:899
5.1224;7.3807;5.7772;4.3897;6.8629;5.459;0.3488;0.0659;0.5696;-0.453;-0.0794;-0.0972;447.0;-47.1;10.2;12.5;65.42;-45.91;-38.31;2.0;58.55;19.519585;-96.9156;4338.71;0.0;32.258064;18 / 18;96.8;55.0;3.805;155602;2014-11-08 13:56:55:399
4.7004;6.7475;5.1852;4.9659;7.4086;4.077;-0.6491;-1.0296;1.4536;-1.0405;-1.6104;-0.9691;561.0;-37.6;-3.3;26.7;80.81;-49.07;-50.61;2.0;50.827;19.519585;-96.9156;4338.71;0.0;32.258064;18 / 18;96.8;55.0;3.805;156102;2014-11-08 13:56:55:899
5.0536;6.119;3.0508;5.1212;6.2998;5.5006;1.1821;1.5145;2.1471;-0.8519;-0.9172;-1.0767;829.0;-15.1;-21.3;15.6;127.93;-39.97;-42.95;2.0;49.33;19.519585;-96.9156;4338.71;0.0;32.258064;18 / 18;96.8;55.0;3.805;156603;2014-11-08 13:56:56:400
5.1613;5.5557;4.9404;4.4354;6.9478;5.3128;0.7458;0.1407;0.2469;-0.8237;-1.3345;-1.1707;766.0;8.4;-27.2;-0.7;197.03;-45.11;-39.86;2.0;49.723;19.519585;-96.9156;4338.71;0.0;32.258064;18 / 18;96.8;55.0;3.805;157104;2014-11-08 13:56:56:901
2.6139;6.9809;5.5055;3.5875;7.725;4.8604;-0.9737;-0.7441;0.645;-0.0546;0.1907;-0.2993;350.0;14.0;-25.9;-8.5;222.47;-51.97;-36.43;2.0;49.016;19.519585;-96.9156;4338.71;0.0;32.258064;18 / 18;96.8;55.0;3.805;157604;2014-11-08 13:56:57:401
3.2453;8.1361;4.8602;3.7818;7.8005;4.5848;-0.5364;0.3356;0.2754;0.5686;0.6463;0.4871;586.0;12.6;-26.3;-4.7;215.42;-52.43;-36.77;2.0;62.006;19.519585;-96.9156;4338.71;0.0;32.258064;18 / 18;96.8;55.0;3.805;158105;2014-11-08 13:56:57:902
5.4061;7.258;3.1544;4.3813;7.8175;3.9825;1.0248;-0.5595;-0.8282;0.5681;0.9537;0.0442;662.0;-3.0;-27.5;15.4;175.44;-49.89;-39.3;2.0;54.152;19.519585;-96.9156;4338.71;0.0;32.258064;18 / 18;96.8;55.0;3.805;158605;2014-11-08 13:56:58:402
5.7521;7.8883;3.9085;3.3468;7.5456;5.2947;2.4053;0.3427;-1.3861;0.4019;0.278;0.2884;694.0;-12.7;-22.4;18.7;134.9;-50.3;-32.3;2.0;50.783;19.519585;-96.9156;4338.71;0.0;32.258064;18 / 18;96.8;55.0;3.805;159106;2014-11-08 13:56:58:903
2.2733;5.9879;3.0293;3.2549;8.0826;4.4998;-0.9816;-2.0947;-1.4705;0.5835;0.2637;0.2511;651.0;-14.6;-20.4;21.1;126.51;-55.51;-35.88;2.0;52.274;19.519585;-96.9156;4338.71;0.0;32.258064;18 / 18;96.8;55.0;3.805;159606;2014-11-08 13:56:59:403
3.5398;8.7963;5.1278;3.3581;7.4883;5.3684;0.1818;1.308;-0.2406;-0.5547;0.3723;-0.0621;632.0;-22.0;-16.4;21.5;117.32;-49.78;-32.03;2.0;54.898;19.519585;-96.9156;4338.71;0.0;32.258064;18 / 18;96.8;55.0;3.805;160107;2014-11-08 13:56:59:904
4.5669;6.4679;7.0994;3.8895;7.344;5.2065;0.6774;-0.8761;1.8929;-0.2501;-0.0354;-0.0125;729.0;-18.1;-17.8;21.1;121.38;-48.49;-36.76;2.0;52.702;19.519585;-96.9156;4338.71;0.0;32.258064;18 / 18;96.8;55.0;3.805;160607;2014-11-08 13:57:00:404
5.8454;7.68;7.6028;3.6477;7.5683;5.0583;2.1977;0.1117;2.5445;0.6112;-0.1465;-0.0032;776.0;-11.8;-21.3;18.8;129.22;-49.58;-36.12;2.0;53.174;19.519585;-96.9156;4338.71;0.0;32.258064;18 / 18;96.8;55.0;3.805;161108;2014-11-08 13:57:00:905
3.9774;7.9386;4.7327;3.8789;7.7701;4.5552;0.0984;0.1685;0.1775;-0.6266;-0.4573;-0.2794;681.0;-7.5;-22.1;20.0;137.74;-54.34;-43.41;2.0;53.572;19.519585;-96.9156;4338.71;0.0;32.258064;18 / 18;96.8;55.0;3.805;161608;2014-11-08 13:57:01:405
5.3469;9.4308;6.6469;4.2253;7.4047;4.8463;1.1215;2.026;1.8006;-0.3827;-0.3649;-0.159;772.0;2.4;-27.0;7.1;172.23;-49.03;-41.08;2.0;54.298;19.519585;-96.9156;4338.71;0.0;32.258064;18 / 18;96.8;55.0;3.805;162108;2014-11-08 13:57:01:905
6.6481;7.8632;3.0263;5.7377;7.1992;3.3794;0.9104;0.664;-0.3532;-0.0977;0.3025;-0.1214;440.0;-1.8;-27.0;11.4;153.63;-47.23;-59.5;2.0;55.317;19.519585;-96.9156;4338.71;0.0;32.258064;18 / 18;96.8;55.0;3.805;162608;2014-11-08 13:57:02:405
3.1418;6.5487;6.6086;4.6313;7.0293;5.031;-1.4895;-0.4805;1.5776;-0.3214;0.7273;-0.3808;675.0;-0.3;-27.0;7.8;166.77;-45.79;-42.63;2.0;51.742;19.519585;-96.9156;4338.71;0.0;32.258064;18 / 18;96.8;55.0;3.805;163109;2014-11-08 13:57:02:906
3.3926;7.9978;5.8814;3.5194;7.635;5.0489;-0.1269;0.3629;0.8325;0.2778;-0.0154;-0.7755;1081.0;-0.1;-27.0;10.7;162.52;-50.41;-39.67;2.0;51.473;19.519585;-96.9156;4338.71;0.0;32.258064;18 / 18;96.8;55.0;3.805;163609;2014-11-08 13:57:03:406
1.6071;7.7578;4.6148;0.7907;8.1735;5.3608;0.8164;-0.4157;-0.746;-0.4088;0.4048;-0.1087;1396.0;10.7;-27.0;11.5;199.25;-56.46;-8.39;2.0;52.16;19.519585;-96.9156;4338.71;0.0;32.258064;18 / 18;96.8;55.0;3.805;164109;2014-11-08 13:57:03:906
1.3007;7.0114;5.8981;0.6364;7.6668;6.0815;0.6642;-0.6554;-0.1834;-0.0567;0.7433;0.355;1477.0;8.8;-27.4;10.2;195.72;-49.82;-8.99;2.0;52.391;19.519585;-96.9156;4338.71;0.0;32.258064;18 / 18;96.8;55.0;3.805;164610;2014-11-08 13:57:04:407
0.0922;6.6792;7.0557;-0.0868;6.65;7.207;0.179;0.0293;-0.1513;-0.1633;0.2602;0.2751;1332.0;2.5;-27.4;8.9;186.84;-42.7;0.69;2.0;52.068;19.519585;-96.9156;4338.71;0.0;32.258064;18 / 18;96.8;55.0;3.805;165110;2014-11-08 13:57:04:907
-0.3974;7.5585;6.4781;0.2242;7.4525;6.3703;-0.815;-0.1675;0.0061;0.1324;0.0365;-0.0181;1218.0;-0.7;-26.6;11.9;176.95;-49.46;-2.02;2.0;51.757;19.519585;-96.9156;4338.71;0.0;32.258064;18 / 18;96.8;55.0;3.805;165805;2014-11-08 13:57:05:602
1.3288;8.6407;5.9693;0.5884;8.0657;5.5469;0.7404;0.5749;0.4224;0.477;-0.5292;-0.3228;1440.0;4.6;-26.7;16.5;186.11;-55.33;-6.06;2.0;60.032;19.519585;-96.9156;4338.71;0.0;32.258064;18 / 18;96.8;55.0;3.805;166305;2014-11-08 13:57:06:102
-0.8422;8.6718;1.397;0.2954;9.5535;2.1941;-1.1376;-0.8817;-0.797;0.2016;-0.5976;-0.1388;1136.0;11.1;-23.4;21.9;195.95;-76.95;-7.67;2.0;51.016;19.519585;-96.9156;4338.71;0.0;32.258064;18 / 18;96.8;55.0;3.805;166805;2014-11-08 13:57:06:602
-0.6225;9.2662;2.7922;-0.2159;9.5554;2.1952;-0.4066;-0.2892;0.5971;0.1201;-0.6506;-0.1491;862.0;19.6;-20.8;15.8;229.51;-77.0;5.62;2.0;51.113;19.519585;-96.9156;4338.71;0.0;32.258064;17 / 17;96.8;55.0;3.805;167306;2014-11-08 13:57:07:103
-0.4585;9.508;2.3583;-0.4787;9.5158;2.3219;0.0202;-0.0078;0.0364;-0.0429;0.4072;0.1212;848.0;18.6;-20.3;11.3;245.06;-76.34;13.62;2.0;51.574;19.519585;-96.9156;4338.71;0.0;32.258064;17 / 17;96.8;55.0;3.805;167806;2014-11-08 13:57:07:603
-0.3095;9.3146;2.5067;-0.0879;9.5424;2.2594;-0.2215;-0.2278;0.2473;-0.0972;0.4607;0.1553;823.0;19.8;-22.6;13.3;230.01;-76.67;2.23;2.0;50.806;19.519585;-96.9156;4338.71;0.0;32.258064;17 / 17;96.8;55.0;3.805;168306;2014-11-08 13:57:08:103
6.6756;9.5325;6.2938;4.3406;7.04;5.2694;2.335;2.4925;1.0243;-0.0413;-0.9739;-0.3305;1225.0;7.5;-27.3;4.3;190.2;-52.14;-36.09;2.0;51.648;19.519585;-96.9156;4338.71;0.0;32.258064;17 / 17;96.8;55.0;3.805;168806;2014-11-08 13:57:08:603
4.7076;7.5148;5.3876;4.2608;7.159;5.1735;0.4468;0.3558;0.214;-0.9489;0.1774;-0.3859;1078.0;10.9;-27.3;-2.5;203.52;-46.89;-39.47;2.0;51.84;19.519585;-96.9156;4338.71;0.0;32.258064;17 / 17;96.8;55.0;3.805;169312;2014-11-08 13:57:09:109
4.2647;8.4019;3.9744;3.6522;8.2346;3.876;0.6125;0.1673;0.0983;0.8125;-1.1398;-0.2075;1056.0;14.3;-25.9;-3.7;213.23;-57.11;-43.3;2.0;52.841;19.519585;-96.9156;4338.71;0.0;32.258064;17 / 17;96.8;55.0;3.805;169812;2014-11-08 13:57:09:609
3.1143;9.2434;0.9068;3.8744;8.9955;0.4907;-0.7601;0.2479;0.4161;-0.3891;-0.3446;-0.0109;438.0;13.0;-26.7;-1.5;189.33;-66.27;-78.06;2.0;51.381;19.519585;-96.9156;4338.71;0.0;32.258064;17 / 17;96.8;55.0;3.805;170313;2014-11-08 13:57:10:110
1.904;9.2895;2.0165;1.3453;9.6474;1.1351;0.5586;-0.3579;0.8814;0.7571;1.1406;-0.649;514.0;20.6;-24.5;2.1;209.35;-79.66;-49.84;2.0;52.117;19.519585;-96.9156;4338.71;0.0;32.258064;17 / 17;96.8;55.0;3.805;170814;2014-11-08 13:57:10:611
1.0678;11.3838;-1.4204;1.4272;9.6932;0.4177;-0.3594;1.6906;-1.8381;0.4658;-0.4626;0.1185;564.0;20.2;-23.3;8.9;192.23;-80.37;-51.57;2.0;57.284;19.519585;-96.9156;4338.71;0.0;32.258064;16 / 17;96.8;55.0;3.805;171314;2014-11-08 13:57:11:111
1.1594;9.6845;-1.0912;0.779;9.7564;-0.6137;0.3804;-0.0718;-0.4774;-0.3747;-0.7326;-0.2035;360.0;21.3;-23.7;5.0;132.96;-84.2;-128.23;2.0;51.789;19.519585;-96.9156;4338.71;0.0;32.258064;16 / 17;96.8;55.0;3.805;171814;2014-11-08 13:57:11:611
1.3874;9.7246;-0.8787;0.7662;9.7395;-0.8523;0.6212;-0.0148;-0.0264;-0.1989;0.0711;-0.1233;312.0;21.3;-23.3;-0.7;139.29;-83.29;-138.04;2.0;52.952;19.519585;-96.9156;4351.61;0.0;32.258064;16 / 17;96.8;55.0;3.805;172314;2014-11-08 13:57:12:111
0.4669;10.2412;-0.9559;0.7796;9.721;-1.0323;-0.3127;0.5202;0.0764;-0.0823;0.0117;-0.4021;300.0;21.0;-24.1;0.2;143.2;-81.09;-132.58;2.0;53.1;19.519585;-96.9156;4351.61;0.0;32.258064;16 / 17;96.8;55.0;3.805;172814;2014-11-08 13:57:12:611
-0.0186;9.3972;-1.6197;0.5541;9.6931;-1.3811;-0.5727;-0.2958;-0.2385;0.2847;0.1446;-0.0842;270.0;22.2;-24.9;-1.0;122.58;-81.27;-158.14;2.0;51.089;19.519585;-96.9156;4351.61;0.0;32.258064;17 / 18;96.8;55.0;3.805;173314;2014-11-08 13:57:13:111
2.2745;10.4764;-0.8086;2.2372;9.5311;-0.5682;0.0373;0.9453;-0.2405;-0.184;-0.175;0.0943;319.0;18.8;-26.1;-0.7;164.71;-79.82;-111.73;2.0;51.166;19.519585;-96.9156;4351.61;0.0;32.258064;17 / 18;96.8;55.0;3.805;173814;2014-11-08 13:57:13:611
1.8597;10.1975;0.3328;2.1519;9.5652;0.2157;-0.2922;0.6323;0.1171;0.3108;0.1166;0.0804;367.0;17.8;-25.7;-2.0;189.34;-77.26;-84.28;2.0;49.984;19.519585;-96.9156;4351.61;0.0;32.258064;17 / 18;96.8;55.0;3.805;174314;2014-11-08 13:57:14:111
3.0676;9.3841;-0.5794;2.5341;9.4682;-0.3194;0.5335;-0.0841;-0.26;0.3843;0.7313;0.4234;345.0;13.7;-25.7;2.1;174.06;-77.42;-90.05;2.0;52.518;19.519585;-96.9156;4351.61;0.0;32.258064;17 / 18;96.8;55.0;3.805;174815;2014-11-08 13:57:14:612
2.6839;9.6103;0.3406;3.0473;9.317;0.2802;-0.3634;0.2933;0.0604;0.1015;0.5595;-0.2748;431.0;15.6;-26.5;11.0;158.6;-71.82;-84.75;2.0;51.071;19.519585;-96.9156;4351.61;0.0;32.258064;17 / 18;95.9;54.0;3.8;175315;2014-11-08 13:57:15:112
2.6348;9.6301;-0.498;2.9209;9.3565;0.3089;-0.2861;0.2736;-0.8069;0.2586;0.2506;0.1321;449.0;13.1;-25.1;15.9;146.63;-74.16;-82.07;2.0;52.535;19.519585;-96.9156;4351.61;0.0;32.258064;17 / 18;95.9;54.0;3.8;175818;2014-11-08 13:57:15:615
4.1456;9.3033;2.8323;3.7333;9.0201;0.9331;0.4122;0.2832;1.8992;0.3491;0.1073;0.2847;453.0;3.3;-23.9;21.0;122.43;-68.69;-85.22;2.0;52.615;19.519585;-96.9156;4351.61;0.0;32.258064;17 / 18;95.9;54.0;3.8;176318;2014-11-08 13:57:16:115
3.8672;6.4548;1.2959;2.3505;9.4521;1.1416;1.5167;-2.9973;0.1543;0.9595;0.7201;-0.4959;764.0;10.9;-23.9;20.0;151.57;-74.55;-64.09;2.0;52.672;19.519585;-96.9156;4351.61;0.0;32.258064;17 / 18;95.9;54.0;3.8;176818;2014-11-08 13:57:16:615
2.9467;9.3996;1.3324;3.9251;8.8488;1.5695;-0.9784;0.5509;-0.2371;-0.5478;-0.8693;0.3891;691.0;-4.6;-18.8;30.2;111.17;-62.84;-74.11;2.0;59.843;19.519579;-96.91559;4351.61;0.0;29.032257;17 / 18;95.9;54.0;3.8;177318;2014-11-08 13:57:17:115
4.3874;10.8374;3.1095;3.9957;8.7973;1.677;0.3917;2.0401;1.4324;0.1084;0.066;-0.6077;657.0;5.3;-24.5;18.3;141.43;-62.01;-73.83;2.0;55.697;19.519579;-96.91559;4351.61;0.0;29.032257;17 / 18;95.9;54.0;3.8;177818;2014-11-08 13:57:17:615
3.3758;9.4912;0.7015;3.5036;9.0849;1.1662;-0.1277;0.4063;-0.4647;-0.2623;0.1617;0.0535;581.0;6.7;-24.1;21.1;136.81;-69.71;-75.17;2.0;56.037;19.519579;-96.91559;4351.61;0.0;29.032257;17 / 18;95.9;54.0;3.8;178318;2014-11-08 13:57:18:115
2.6869;7.0509;2.2577;2.6756;9.3406;1.3287;0.0113;-2.2896;0.929;0.1212;0.6218;0.9436;701.0;6.7;-24.1;23.5;141.91;-72.26;-63.59;2.0;60.789;19.519579;-96.91559;4351.61;0.0;29.032257;17 / 18;95.9;54.0;3.8;178822;2014-11-08 13:57:18:619
4.4059;10.3394;0.4639;3.4837;9.1083;1.0356;0.9223;1.231;-0.5718;-0.0722;-0.326;0.8485;654.0;-1.2;-21.2;27.1;118.21;-68.25;-73.44;2.0;56.72;19.519579;-96.91559;4351.61;0.0;29.032257;17 / 18;95.9;54.0;3.8;179323;2014-11-08 13:57:19:120
3.3285;9.6977;0.9703;3.6291;9.0545;1.0078;-0.3006;0.6432;-0.0376;0.0945;-0.4463;0.0178;646.0;3.8;-23.1;23.0;132.69;-68.92;-70.86;2.0;55.916;19.519579;-96.91559;4351.61;0.0;29.032257;17 / 18;95.9;54.0;3.8;179823;2014-11-08 13:57:19:620
4.2102;7.2688;2.2122;3.7812;8.9224;1.5047;0.429;-1.6536;0.7076;0.526;0.0562;0.0623;739.0;3.9;-24.0;21.9;134.49;-63.75;-73.61;2.0;56.968;19.519571;-96.91558;4354.84;0.9;32.258064;17 / 18;95.9;54.0;3.8;180323;2014-11-08 13:57:20:120
4.7184;8.4324;0.5321;2.9604;9.1519;1.9101;1.758;-0.7196;-1.378;-0.5675;-0.2796;-0.3009;718.0;10.2;-25.6;17.1;153.25;-65.29;-64.58;2.0;56.848;19.519571;-96.91558;4354.84;0.9;32.258064;17 / 18;95.9;54.0;3.8;180823;2014-11-08 13:57:20:620
3.6607;11.1983;1.1145;4.2225;8.7291;1.4643;-0.5617;2.4692;-0.3498;-0.2384;0.277;-0.6842;718.0;8.6;-26.4;13.6;156.38;-62.89;-70.87;2.0;56.599;19.519571;-96.91558;4354.84;0.9;32.258064;17 / 18;95.9;54.0;3.8;181323;2014-11-08 13:57:21:120
4.5861;8.8825;2.238;4.6573;8.5556;1.1323;-0.0712;0.3269;1.1057;-0.8237;0.0154;0.3859;815.0;5.6;-26.8;15.3;165.02;-64.25;-59.38;2.0;54.151;19.519571;-96.91558;4354.84;0.9;32.258064;17 / 18;95.9;54.0;3.8;181824;2014-11-08 13:57:21:621
5.3624;8.652;1.9609;3.7848;8.8229;2.0002;1.5776;-0.1709;-0.0394;0.1435;-0.1132;-0.7686;757.0;6.1;-26.0;18.0;151.04;-64.12;-62.14;2.0;52.866;19.519571;-96.91558;4354.84;0.9;32.258064;17 / 18;95.9;54.0;3.8;182324;2014-11-08 13:57:22:121
4.5071;10.5429;1.2725;4.4946;8.5544;1.6707;0.0125;1.9885;-0.3982;-0.135;0.5979;0.4455;787.0;0.1;-24.8;22.2;132.33;-66.31;-65.85;2.0;51.871;19.519571;-96.91558;4354.84;0.9;32.258064;17 / 18;95.9;54.0;3.8;182824;2014-11-08 13:57:22:621
3.1466;7.7907;1.6813;4.2742;8.5195;2.3066;-1.1276;-0.7287;-0.6253;0.3811;-0.106;-0.0506;955.0;-15.0;-19.1;28.9;102.68;-61.37;-66.19;2.0;51.841;19.519566;-96.91558;4358.06;1.8;32.258064;17 / 18;95.9;54.0;3.8;183325;2014-11-08 13:57:23:122
4.0839;9.5307;3.5775;3.6628;8.8851;1.9517;0.4212;0.6456;1.6258;0.2586;0.812;-0.6306;979.0;-1.4;-20.6;27.1;128.88;-64.96;-61.95;2.0;53.238;19.519566;-96.91558;4358.06;1.8;32.258064;17 / 18;95.9;54.0;3.8;183825;2014-11-08 13:57:23:622
4.7405;8.9675;2.9987;3.2536;8.7416;3.0279;1.4869;0.2258;-0.0291;0.1542;1.7761;0.7673;1005.0;-24.8;-11.8;32.9;102.54;-63.05;-47.06;2.0;54.757;19.519566;-96.91558;4358.06;1.8;32.258064;17 / 18;95.9;54.0;3.8;184325;2014-11-08 13:57:24:122
4.3132;8.7011;1.4635;4.5814;8.3929;2.1773;-0.2683;0.3082;-0.7138;-0.5931;-0.829;-0.8256;633.0;-34.0;-3.2;34.9;75.59;-58.85;-64.58;2.0;54.451;19.519566;-96.91558;4358.06;1.8;32.258064;17 / 18;95.9;54.0;3.8;184825;2014-11-08 13:57:24:622
2.1853;8.2085;2.7916;2.4886;9.2106;2.2677;-0.3032;-1.0021;0.524;-0.2447;-0.848;0.2075;1136.0;-1.7;-20.2;28.6;131.15;-69.61;-53.84;2.0;52.982;19.519562;-96.91557;4361.29;1.8;32.258064;16 / 17;95.9;54.0;3.8;185325;2014-11-08 13:57:25:122
3.3243;9.0261;2.8054;2.8083;8.9847;2.7494;0.5161;0.0414;0.056;-0.2602;-0.8139;-0.4573;1042.0;6.9;-23.9;18.7;161.79;-66.37;-45.61;2.0;53.888;19.519562;-96.91557;4361.29;1.8;32.258064;16 / 17;95.9;54.0;3.8;185825;2014-11-08 13:57:25:622
2.4169;8.9477;2.727;2.9208;9.1437;2.0079;-0.5039;-0.196;0.7191;0.4381;-0.2352;-0.3832;558.0;11.6;-26.7;9.3;176.06;-65.67;-59.65;2.0;54.05;19.519562;-96.91557;4361.29;1.8;32.258064;17 / 18;95.9;54.0;3.8;186325;2014-11-08 13:57:26:122
3.3238;8.9872;0.9116;2.9736;9.2386;1.4058;0.3501;-0.2514;-0.4942;0.0019;-0.326;0.0274;513.0;14.7;-26.7;9.0;176.12;-70.4;-64.7;2.0;53.794;19.519562;-96.91557;4361.29;1.8;32.258064;17 / 18;95.9;54.0;3.8;186825;2014-11-08 13:57:26:622
1.9752;7.0749;2.7707;2.9157;9.2571;1.4054;-0.9405;-2.1822;1.3653;-0.0407;0.0208;-0.1505;492.0;15.0;-27.5;4.8;184.84;-70.73;-64.27;2.0;52.332;19.519562;-96.91557;4361.29;1.8;32.258064;18 / 19;95.9;54.0;3.8;187325;2014-11-08 13:57:27:122
-4.9398;7.8201;3.7936;-0.1507;8.7299;4.465;-4.7892;-0.9098;-0.6714;0.2314;1.2946;-2.1383;1005.0;21.4;-24.7;5.7;194.8;-63.29;-53.18;2.0;51.696;19.519562;-96.91557;4361.29;1.8;32.258064;18 / 19;95.9;54.0;3.8;187826;2014-11-08 13:57:27:623
-2.9275;8.5042;4.5957;0.2881;8.9697;3.9537;-3.2156;-0.4655;0.642;-0.1254;-0.8663;1.1033;994.0;17.2;-26.0;8.4;220.85;-66.16;-4.17;2.0;53.237;19.519562;-96.91557;4361.29;1.8;32.258064;18 / 19;95.9;54.0;3.8;188326;2014-11-08 13:57:28:123
2.0836;9.0261;2.8018;2.1392;9.0844;3.0114;-0.0557;-0.0582;-0.2095;0.1734;0.1465;0.2256;1004.0;14.7;-26.7;10.1;196.6;-67.43;-31.41;2.0;55.01;19.519562;-96.91557;4361.29;1.8;32.258064;18 / 19;95.9;54.0;3.8;188826;2014-11-08 13:57:28:623
3.1137;9.6486;3.4111;2.6706;8.9242;3.0654;0.4431;0.7244;0.3457;-0.0525;0.0325;0.0154;961.0;13.7;-26.3;12.3;185.98;-65.9;-40.5;2.0;55.064;19.519562;-96.91557;4361.29;1.8;32.258064;18 / 19;95.9;54.0;3.8;189326;2014-11-08 13:57:29:123
2.4582;8.9202;2.1392;3.0629;8.9652;2.5324;-0.6047;-0.045;-0.3932;0.0072;0.7406;0.4208;921.0;8.5;-26.7;15.0;167.38;-66.09;-50.42;2.0;54.45;19.519562;-96.91557;4361.29;1.8;32.258064;18 / 19;95.9;54.0;3.8;189827;2014-11-08 13:57:29:624
3.7709;7.2113;4.4813;3.395;8.3231;3.9205;0.3759;-1.1118;0.5609;0.266;1.3191;0.7824;1192.0;-4.6;-24.7;20.2;143.44;-61.63;-40.06;2.0;60.263;19.519552;-96.91557;4351.61;0.0;32.258064;19 / 19;95.9;54.0;3.8;190328;2014-11-08 13:57:30:125
4.2892;8.184;4.7315;3.686;7.7305;4.7774;0.6032;0.4535;-0.0459;-0.3736;0.1928;0.0831;1234.0;-14.7;-20.8;22.3;127.51;-52.03;-37.65;2.0;57.612;19.519552;-96.91557;4351.61;0.0;32.258064;19 / 19;95.9;54.0;3.8;190832;2014-11-08 13:57:30:629
3.8343;7.6303;4.2593;3.7638;7.7117;4.747;0.0705;-0.0813;-0.4877;0.0748;0.016;0.0309;1129.0;-16.2;-19.9;21.5;125.51;-51.39;-37.26;2.0;57.219;19.519548;-96.915565;4351.61;0.9;32.258064;19 / 19;95.9;54.0;3.8;191335;2014-11-08 13:57:31:132
4.0013;8.0427;4.5017;3.7161;7.7436;4.7326;0.2852;0.2991;-0.231;0.1744;-0.1739;-0.196;1217.0;-16.7;-19.5;22.7;122.29;-52.03;-38.18;2.0;60.9;19.519548;-96.915565;4351.61;0.9;32.258064;19 / 19;95.9;54.0;3.8;191835;2014-11-08 13:57:31:632
3.1933;8.9453;3.6003;2.9652;8.8275;3.0747;0.228;0.1179;0.5256;0.0599;-0.6626;-0.3989;1286.0;-10.3;-19.5;25.2;129.91;-59.86;-41.28;2.0;56.51;19.519545;-96.915565;4351.61;0.0;29.032257;19 / 19;95.9;54.0;3.8;192335;2014-11-08 13:57:32:132
1.5646;9.4912;2.1632;2.0807;9.3398;2.1468;-0.5161;0.1514;0.0163;-3.0E-4;-0.5641;-0.4322;951.0;6.8;-22.5;23.8;153.73;-70.59;-48.74;2.0;59.301;19.519545;-96.915565;4351.61;0.0;29.032257;19 / 19;95.9;54.0;3.8;192835;2014-11-08 13:57:32:632
2.9796;10.0413;1.1295;2.0767;9.397;1.8852;0.9029;0.6443;-0.7557;-0.2469;-0.726;0.1225;936.0;5.4;-23.3;20.4;165.34;-75.12;-42.18;2.0;64.868;19.519545;-96.915565;4351.61;0.0;29.032257;19 / 19;95.9;54.0;3.8;193335;2014-11-08 13:57:33:132
3.1801;7.8392;2.9239;3.9216;8.8767;1.4129;-0.7415;-1.0374;1.511;0.0024;-0.678;0.5593;832.0;10.9;-25.9;16.0;160.95;-69.11;-61.42;2.0;62.247;19.519545;-96.915565;4351.61;0.0;29.032257;19 / 19;95.9;54.0;3.8;193836;2014-11-08 13:57:33:633
4.3299;8.6904;2.2571;4.5962;8.4123;2.0683;-0.2663;0.278;0.1889;-0.4264;-0.3137;-0.4511;819.0;3.1;-26.3;16.9;144.83;-56.29;-67.91;2.0;66.395;19.519545;-96.915565;4351.61;0.0;29.032257;19 / 19;95.9;54.0;3.8;194336;2014-11-08 13:57:34:133
3.7984;8.7311;2.5857;2.7862;9.0453;2.567;1.0122;-0.3143;0.0187;-0.2069;-0.187;-0.5585;793.0;12.4;-27.5;8.8;177.92;-65.64;-56.58;2.0;64.865;19.519545;-96.915565;4351.61;0.0;29.032257;19 / 19;95.9;54.0;3.8;194836;2014-11-08 13:57:34:633
2.5019;8.679;2.8557;1.9585;8.9457;3.5085;0.5434;-0.2667;-0.6528;-0.338;0.1113;0.0485;910.0;18.7;-25.3;2.0;217.59;-65.81;-29.17;2.0;59.91;19.519533;-96.915565;4341.94;0.0;12.903226;19 / 19;95.9;54.0;3.8;195336;2014-11-08 13:57:35:133
5.1565;8.5581;3.8439;3.3124;8.162;4.3104;1.8441;0.396;-0.4665;0.3822;0.7891;0.8035;1202.0;7.6;-27.1;8.8;181.97;-56.34;-37.54;2.0;59.608;19.519533;-96.915565;4341.94;0.0;12.903226;19 / 19;95.9;54.0;3.8;195836;2014-11-08 13:57:35:633
4.2192;7.841;4.2539;4.1687;7.881;4.0845;0.0505;-0.04;0.1694;0.0908;0.2;0.2772;1206.0;1.5;-27.1;12.8;162.52;-53.46;-44.86;2.0;56.493;19.519533;-96.915565;4341.94;0.0;12.903226;19 / 19;95.9;54.0;3.8;196337;2014-11-08 13:57:36:134
3.1101;7.7865;3.392;3.8328;8.2197;3.7305;-0.7227;-0.4332;-0.3385;0.829;0.396;-0.0866;1234.0;-2.5;-25.5;17.9;148.09;-56.95;-45.77;2.0;56.381;19.519533;-96.915565;4341.94;0.0;12.903226;19 / 19;95.5;54.0;3.807;196837;2014-11-08 13:57:36:634
4.725;9.077;2.4247;3.6039;8.7888;2.437;1.1211;0.2882;-0.0122;0.3875;0.3236;-0.0298;1137.0;-7.5;-21.3;27.1;132.91;-59.93;-50.44;2.0;60.941;19.519533;-96.915565;4341.94;0.0;12.903226;19 / 19;95.5;54.0;3.807;197337;2014-11-08 13:57:37:134
-0.5237;8.6018;3.5356;1.7732;9.2753;2.6449;-2.2969;-0.6735;0.8907;1.1124;0.3944;0.1672;1112.0;-6.1;-19.6;29.4;125.56;-72.0;-51.04;2.0;60.86;19.519533;-96.915565;4341.94;0.0;12.903226;19 / 19;95.5;54.0;3.807;197837;2014-11-08 13:57:37:634
3.3812;10.2747;2.1889;3.3613;8.6425;3.1904;0.0199;1.6322;-1.0015;-0.0844;1.3412;0.143;1221.0;-19.3;-16.2;30.6;109.19;-62.23;-55.48;2.0;64.631;19.51954;-96.915565;4351.61;0.0;12.903226;19 / 19;95.5;54.0;3.807;198337;2014-11-08 13:57:38:134
3.456;7.6184;5.1104;2.8388;8.4054;4.1786;0.6173;-0.7871;0.9318;0.2011;0.7609;0.5001;1216.0;-26.2;-14.2;26.4;109.97;-58.99;-34.19;2.0;65.389;19.51954;-96.915565;4351.61;0.0;12.903226;19 / 19;95.5;54.0;3.807;198837;2014-11-08 13:57:38:634
2.7126;8.017;4.9087;3.3089;8.1294;4.3743;-0.5963;-0.1124;0.5345;0.3838;0.3638;0.2783;899.0;-36.0;-6.9;25.2;93.19;-55.99;-37.11;2.0;64.027;19.519548;-96.915565;4351.61;0.9;12.903226;19 / 19;95.5;54.0;3.807;199337;2014-11-08 13:57:39:134
5.8113;9.086;3.4381;3.0523;8.1635;4.4957;2.7591;0.9225;-1.0577;0.2043;0.8956;0.5654;483.0;-43.0;1.0;19.6;79.27;-58.71;-36.73;2.0;60.974;19.519548;-96.915565;4351.61;0.9;12.903226;19 / 19;95.5;54.0;3.807;199838;2014-11-08 13:57:39:635
3.8128;10.9415;-0.9044;4.2177;8.6587;1.8463;-0.4049;2.2828;-2.7507;0.1462;-0.6333;0.1702;423.0;-45.6;6.5;28.2;82.58;-60.71;-35.68;2.0;60.472;19.519548;-96.915565;4351.61;0.9;12.903226;19 / 19;95.5;54.0;3.807;200338;2014-11-08 13:57:40:135
3.5338;7.2083;1.9585;2.4425;8.878;3.3743;1.0914;-1.6697;-1.4158;-0.6724;0.2229;0.0205;778.0;-38.0;-4.8;27.0;88.27;-66.43;-39.96;2.0;62.114;19.519548;-96.915565;4351.61;0.9;12.903226;19 / 19;95.5;54.0;3.807;200838;2014-11-08 13:57:40:635
5.6713;9.2596;4.0241;4.2125;8.2861;3.125;1.4587;0.9735;0.8991;-1.3068;-1.1321;-0.2985;1022.0;-32.2;-5.4;33.8;87.62;-57.67;-53.43;2.0;65.117;19.519556;-96.91556;4345.16;0.9;9.677419;19 / 19;95.5;54.0;3.807;201338;2014-11-08 13:57:41:135
4.1707;7.9942;2.6594;3.6487;8.8138;2.2749;0.522;-0.8195;0.3845;0.0876;-0.3505;-0.0194;1121.0;-22.9;-11.1;33.8;94.81;-63.99;-58.06;2.0;67.239;19.519556;-96.91556;4345.16;0.9;9.677419;19 / 19;95.5;54.0;3.807;201838;2014-11-08 13:57:41:635
1.3838;6.9073;1.3138;2.4803;9.092;2.7118;-1.0965;-2.1847;-1.398;-0.4823;0.0759;0.3558;1122.0;-25.4;-12.3;33.0;105.68;-67.99;-42.45;2.0;59.9;19.519556;-96.91556;4345.16;0.9;9.677419;18 / 18;95.5;54.0;3.807;202338;2014-11-08 13:57:42:135
3.2483;10.8445;0.8811;2.8655;9.0594;2.4264;0.3829;1.7852;-1.5454;-0.3816;0.2149;-0.5851;1087.0;-18.0;-13.9;32.4;107.93;-64.57;-50.76;2.0;59.92;19.519556;-96.91556;4345.16;0.9;9.677419;18 / 18;95.5;54.0;3.807;202838;2014-11-08 13:57:42:635
2.1949;8.852;1.7657;2.8262;9.1312;2.1919;-0.6313;-0.2792;-0.4261;-0.012;-0.7177;0.3989;936.0;-8.4;-18.5;29.6;139.38;-68.15;-30.08;2.0;58.043;19.519562;-96.91555;4338.71;0.9;12.903226;18 / 18;95.5;54.0;3.807;203338;2014-11-08 13:57:43:135
3.9205;9.0034;2.7809;2.4057;9.0191;3.0064;1.5148;-0.0157;-0.2255;-0.4615;0.9595;-0.0647;1100.0;-9.5;-18.9;30.0;118.42;-63.54;-57.12;2.0;57.447;19.519562;-96.91555;4338.71;0.9;12.903226;18 / 18;95.5;54.0;3.807;203839;2014-11-08 13:57:43:636
5.0212;8.7245;3.638;3.309;8.9043;2.436;1.7122;-0.1798;1.202;-0.7705;-1.6762;-0.7942;633.0;7.5;-25.3;18.0;159.45;-65.23;-53.64;2.0;55.414;19.519562;-96.91555;4338.71;0.9;12.903226;18 / 18;95.5;54.0;3.807;204339;2014-11-08 13:57:44:136
3.5051;8.3492;2.4361;2.9399;9.0738;2.2791;0.5652;-0.7246;0.157;0.1366;0.2392;0.0634;478.0;15.9;-26.7;8.3;187.49;-67.71;-52.22;2.0;66.35;19.519562;-96.91555;4338.71;0.9;12.903226;18 / 18;95.5;54.0;3.807;204839;2014-11-08 13:57:44:636
3.3776;9.1417;0.8218;2.7658;9.2672;1.6248;0.6118;-0.1255;-0.803;-0.1521;0.8727;0.9305;510.0;9.9;-25.5;22.0;157.87;-72.87;-52.32;2.0;66.036;19.519562;-96.91555;4338.71;0.9;12.903226;18 / 18;95.5;54.0;3.807;205339;2014-11-08 13:57:45:136
3.2842;7.5615;3.8816;3.8328;8.64;2.6136;-0.5486;-1.0785;1.268;-0.4658;-0.0629;0.5119;694.0;1.6;-23.7;23.0;129.31;-62.36;-58.07;2.0;62.302;19.519562;-96.91555;4338.71;0.9;12.903226;18 / 18;95.5;54.0;3.807;205839;2014-11-08 13:57:45:636
4.5131;8.5132;0.4507;4.0779;8.4405;2.8807;0.4351;0.0727;-2.43;-0.429;-0.7185;0.1041;705.0;-0.3;-24.1;21.7;138.88;-57.09;-60.9;2.0;54.798;19.51956;-96.91555;4332.26;0.9;12.903226;18 / 18;95.5;54.0;3.807;206339;2014-11-08 13:57:46:136
3.4566;8.8891;2.7078;4.2345;8.6363;1.9116;-0.7778;0.2528;0.7962;-0.1691;-0.4362;-0.0503;432.0;8.3;-26.6;14.8;157.16;-61.72;-65.7;2.0;54.047;19.51956;-96.91555;4332.26;0.9;12.903226;18 / 18;95.5;54.0;3.807;206839;2014-11-08 13:57:46:636
4.6023;9.0501;1.9321;4.1812;8.629;2.0564;0.4211;0.4211;-0.1243;-0.2149;0.0152;0.0458;462.0;10.0;-27.4;12.7;164.28;-61.63;-63.81;2.0;53.434;19.51956;-96.91555;4332.26;0.9;12.903226;18 / 18;95.5;54.0;3.807;207339;2014-11-08 13:57:47:136
3.7254;8.5299;1.64;3.6683;8.8541;2.0782;0.057;-0.3241;-0.4382;0.478;0.2431;-0.037;476.0;9.9;-27.0;13.6;164.24;-64.54;-60.47;2.0;50.054;19.51956;-96.91555;4332.26;0.9;12.903226;18 / 18;95.5;54.0;3.807;207839;2014-11-08 13:57:47:636
4.2054;9.0692;1.9022;3.5786;8.8703;2.164;0.6269;0.199;-0.2618;0.0328;0.1965;-0.1332;530.0;8.6;-25.8;17.3;160.7;-64.43;-58.95;2.0;49.52;19.51956;-96.91555;4332.26;0.9;12.903226;18 / 18;95.5;54.0;3.807;208339;2014-11-08 13:57:48:136
3.8295;9.0285;1.9752;3.6775;8.8359;2.1387;0.1521;0.1927;-0.1635;0.0067;-0.1481;-0.0868;507.0;9.3;-25.8;17.3;158.63;-64.29;-59.82;2.0;49.277;19.51956;-96.91555;4332.26;0.9;12.903226;18 / 18;95.5;54.0;3.807;208839;2014-11-08 13:57:48:636
4.109;8.6718;2.068;3.6454;8.8748;2.0294;0.4636;-0.203;0.0386;-0.4818;-1.3031;-0.4884;451.0;15.0;-27.0;4.4;188.61;-64.82;-60.9;2.0;61.454;19.519552;-96.91554;4325.81;0.0;12.903226;18 / 18;95.5;54.0;3.807;209339;2014-11-08 13:57:49:136
3.8445;8.7448;2.3218;3.7271;8.7891;2.2431;0.1174;-0.0442;0.0787;0.6357;-0.4224;0.9726;541.0;14.2;-23.9;-5.7;224.43;-66.26;-43.72;2.0;61.121;19.519552;-96.91554;4325.81;0.0;12.903226;18 / 18;95.5;54.0;3.807;209839;2014-11-08 13:57:49:636
2.8635;8.7502;0.149;3.9636;8.8408;1.5168;-1.1001;-0.0906;-1.3678;0.2463;0.338;-0.1201;429.0;9.6;-25.8;-4.7;204.53;-64.36;-69.06;2.0;48.386;19.519548;-96.91554;4322.58;0.0;12.903226;18 / 18;95.5;54.0;3.807;210341;2014-11-08 13:57:50:138
4.5705;9.0692;1.822;4.2225;8.652;1.8663;0.348;0.4172;-0.0443;0.3353;0.0778;0.3659;419.0;14.1;-26.6;-3.5;202.31;-63.8;-63.19;2.0;48.07;19.519548;-96.91554;4322.58;0.0;12.903226;18 / 18;95.5;54.0;3.807;210841;2014-11-08 13:57:50:638
3.9917;8.6874;2.1296;4.1201;8.6475;2.1014;-0.1283;0.0399;0.0282;-0.0413;0.0418;-0.0376;443.0;14.7;-26.6;-3.1;202.14;-61.86;-62.98;2.0;57.89;19.519548;-96.91554;4322.58;0.0;12.903226;19 / 19;95.5;54.0;3.807;211341;2014-11-08 13:57:51:138
3.1819;8.916;3.1639;3.2732;8.6019;3.3857;-0.0913;0.3141;-0.2218;0.0775;0.1499;0.0011;560.0;17.9;-25.4;-4.7;219.63;-61.3;-44.03;2.0;59.23;19.519548;-96.91554;4322.58;0.0;12.903226;19 / 19;95.5;54.0;3.807;211841;2014-11-08 13:57:51:638
4.7297;8.7718;2.9;4.3238;8.4524;2.456;0.4059;0.3194;0.444;0.2783;-0.1481;-0.0461;427.0;13.2;-26.6;2.4;190.91;-59.53;-60.4;2.0;58.104;19.519539;-96.91554;4325.81;0.0;12.903226;19 / 19;95.5;54.0;3.807;212341;2014-11-08 13:57:52:138
4.282;8.3791;2.4989;4.4723;8.4429;2.2106;-0.1902;-0.0638;0.2883;-0.0168;0.1603;0.0261;448.0;11.4;-27.8;6.3;178.85;-59.42;-63.7;2.0;61.132;19.519539;-96.91554;4325.81;0.0;12.903226;19 / 19;95.5;54.0;3.807;212841;2014-11-08 13:57:52:638
4.4053;7.7548;2.7683;4.5226;8.2268;2.835;-0.1172;-0.472;-0.0667;0.1132;0.1177;-0.1947;610.0;8.0;-27.8;11.6;167.88;-57.01;-56.81;2.0;58.59;19.519539;-96.91554;4325.81;0.0;12.903226;19 / 19;95.5;54.0;3.807;213341;2014-11-08 13:57:53:138
1.9028;8.3187;1.9579;2.7646;9.1789;2.0675;-0.8618;-0.8603;-0.1097;0.0972;0.9273;0.6698;524.0;12.9;-25.5;15.0;175.94;-68.29;-39.63;2.0;56.416;19.519539;-96.91554;4325.81;0.0;12.903226;19 / 19;95.5;54.0;3.807;213841;2014-11-08 13:57:53:638
4.6328;8.8442;0.5507;5.489;7.9232;1.8069;-0.8562;0.921;-1.2563;-0.0993;-0.1641;-0.6197;624.0;-2.9;-23.9;22.9;134.5;-56.21;-63.03;2.0;60.586;19.519539;-96.91554;4325.81;0.0;12.903226;19 / 19;95.5;54.0;3.807;214341;2014-11-08 13:57:54:138
2.7623;6.4643;4.3844;2.9917;9.195;1.6345;-0.2294;-2.7307;2.7499;0.3992;-0.9468;0.139;358.0;13.0;-23.5;16.9;161.75;-69.66;-61.35;2.0;49.781;19.519539;-96.91554;4325.81;0.0;12.903226;19 / 19;95.5;54.0;3.807;214841;2014-11-08 13:57:54:638
1.555;9.0842;0.7272;4.149;8.5063;2.5688;-2.594;0.5779;-1.8415;0.6037;0.069;-0.498;622.0;1.7;-24.7;21.7;143.62;-60.16;-58.24;2.0;50.765;19.519531;-96.915535;4322.58;0.0;12.903226;19 / 19;95.5;54.0;3.807;215341;2014-11-08 13:57:55:138
3.6787;9.0363;2.4433;4.4201;8.3176;2.7297;-0.7414;0.7187;-0.2864;-0.1712;0.077;0.0117;668.0;0.4;-23.9;21.6;140.27;-58.01;-58.3;2.0;56.292;19.519531;-96.915535;4322.58;0.0;12.903226;19 / 19;95.5;54.0;3.807;215841;2014-11-08 13:57:55:638
5.4486;7.7363;2.7509;4.3462;8.5377;2.0947;1.1024;-0.8015;0.6562;0.1057;0.2453;-0.126;421.0;-0.2;-22.3;24.9;128.65;-61.15;-69.5;2.0;59.435;19.519531;-96.915535;4322.58;0.0;12.903226;19 / 19;95.5;54.0;3.807;216341;2014-11-08 13:57:56:138
5.6922;8.4288;3.6949;4.8477;8.1864;2.3775;0.8445;0.2424;1.3174;0.1329;0.6368;0.1779;522.0;-9.2;-20.0;28.7;114.49;-56.95;-66.36;2.0;55.288;19.519531;-96.915535;4322.58;0.0;12.903226;19 / 19;95.5;54.0;3.807;216841;2014-11-08 13:57:56:638
5.0272;9.2638;3.134;4.5108;8.1984;2.9341;0.5165;1.0653;0.1999;-0.3518;0.0706;0.1084;804.0;-12.9;-17.0;30.0;113.32;-56.72;-56.96;2.0;53.246;19.519526;-96.915535;4329.03;0.0;12.903226;19 / 19;95.5;54.0;3.807;217341;2014-11-08 13:57:57:138
-0.4645;8.3324;3.3764;-1.5864;8.6675;4.3045;1.1219;-0.335;-0.9281;0.0866;0.7401;0.1443;806.0;-5.7;-21.5;24.1;116.73;-59.4;-49.84;2.0;53.539;19.519526;-96.915535;4329.03;0.0;12.903226;19 / 19;95.5;54.0;3.807;217843;2014-11-08 13:57:57:640
1.7394;9.5271;4.1695;0.8975;8.9147;3.9867;0.8419;0.6125;0.1828;-0.2;0.425;0.3646;952.0;-16.6;-17.7;27.9;141.85;-65.37;-12.69;2.0;59.737;19.519526;-96.915535;4329.03;0.0;12.903226;19 / 19;95.5;54.0;3.807;218344;2014-11-08 13:57:58:141
0.5578;8.7825;3.3788;0.8631;9.0502;3.6768;-0.3053;-0.2677;-0.298;0.1057;0.0397;-0.0953;973.0;-17.6;-16.5;27.9;139.0;-67.35;-13.21;2.0;53.222;19.519526;-96.915535;4329.03;0.0;12.903226;19 / 19;95.5;54.0;3.807;218844;2014-11-08 13:57:58:641
1.3539;9.4643;3.292;1.1305;9.0341;3.6438;0.2234;0.4302;-0.3518;0.1372;0.0011;-0.1643;1016.0;-18.3;-16.5;28.3;135.51;-67.11;-17.24;2.0;57.514;19.519526;-96.915535;4329.03;0.0;12.903226;19 / 19;95.5;54.0;3.807;219344;2014-11-08 13:57:59:141
0.3017;8.6724;3.2699;0.5456;9.1492;3.4878;-0.2439;-0.4768;-0.2179;0.0983;0.0764;-0.3364;1068.0;-16.3;-16.1;28.7;137.96;-67.74;-15.08;2.0;61.226;19.519526;-96.915535;4329.03;0.0;12.903226;19 / 19;95.5;54.0;3.807;219844;2014-11-08 13:57:59:641
-0.0922;9.0495;3.5183;0.3814;9.1757;3.4398;-0.4736;-0.1262;0.0785;0.036;0.237;0.0759;1033.0;-15.1;-17.3;28.3;148.06;-69.71;-7.87;2.0;50.53;19.519522;-96.91553;4329.03;0.0;9.677419;19 / 19;95.5;54.0;3.807;220345;2014-11-08 13:58:00:142
1.236;9.2267;2.8006;0.9135;9.2175;3.2209;0.3225;0.0092;-0.4203;0.1361;0.0975;0.2061;978.0;-18.8;-15.7;29.1;141.07;-69.39;-9.86;2.0;52.084;19.519522;-96.91553;4329.03;0.0;9.677419;19 / 19;95.5;54.0;3.807;220845;2014-11-08 13:58:00:642
3.0155;9.5618;3.5937;2.3547;8.92;3.3256;0.6608;0.6419;0.2681;-0.0818;0.0708;0.0615;982.0;-29.3;-10.0;29.5;105.25;-65.45;-35.3;2.0;50.683;19.519522;-96.91553;4329.03;0.0;9.677419;19 / 19;95.5;54.0;3.807;221345;2014-11-08 13:58:01:142
1.904;8.8232;4.6148;2.1969;8.7193;3.9139;-0.2929;0.104;0.7009;0.0471;-0.0338;-0.0115;1059.0;-28.8;-10.8;27.3;109.12;-62.76;-29.31;2.0;51.176;19.519522;-96.91553;4329.03;0.0;9.677419;19 / 19;95.5;54.0;3.807;221846;2014-11-08 13:58:01:643
2.1087;8.2426;4.2683;1.9703;8.7146;4.0427;0.1384;-0.472;0.2256;-0.0344;0.2136;0.0921;1069.0;-29.8;-11.2;25.7;110.23;-62.7;-25.98;2.0;49.936;19.519522;-96.91553;4329.03;0.0;9.677419;19 / 19;95.5;54.0;3.807;222346;2014-11-08 13:58:02:143
0.2077;8.5766;3.8445;1.22;8.6095;4.5341;-1.0123;-0.0329;-0.6896;0.1148;0.1752;0.2647;1081.0;-28.2;-12.0;22.6;119.73;-61.39;-15.06;2.0;51.386;19.519522;-96.91553;4329.03;0.0;9.677419;19 / 19;95.5;54.0;3.807;222846;2014-11-08 13:58:02:643
0.6853;8.4384;4.7639;1.1479;8.6733;4.4303;-0.4626;-0.2349;0.3336;-0.0546;0.228;-0.0756;945.0;-29.6;-11.4;22.2;113.85;-62.4;-17.69;2.0;53.676;19.519522;-96.91553;4329.03;0.0;9.677419;19 / 19;95.5;54.0;3.807;223346;2014-11-08 13:58:03:143
1.2785;8.3187;4.0983;1.4028;8.7289;4.2438;-0.1243;-0.4102;-0.1455;0.0652;-0.143;0.229;922.0;-30.3;-11.0;21.4;113.59;-62.79;-16.81;2.0;53.697;19.519522;-96.91553;4329.03;0.0;9.677419;19 / 19;95.5;54.0;3.807;223846;2014-11-08 13:58:03:643
2.2045;7.9601;5.9035;2.611;7.6507;5.5516;-0.4066;0.3095;0.3519;-0.5196;0.4591;-0.3414;823.0;-36.7;-5.3;22.7;90.92;-53.1;-35.65;2.0;53.161;19.519522;-96.91552;4329.03;0.0;12.903226;19 / 19;95.5;54.0;3.807;224346;2014-11-08 13:58:04:143
11.8591;-2.8581;7.8793;6.8869;-0.9671;6.9142;4.9722;-1.8909;0.9651;0.8125;0.6136;4.2222;825.0;-56.9;44.4;26.0;54.67;5.66;-44.89;2.0;50.863;19.519522;-96.91552;4329.03;0.0;12.903226;19 / 19;95.5;54.0;3.807;224847;2014-11-08 13:58:04:644
5.5354;-2.1003;8.4228;1.0016;-8.2699;5.1746;4.5338;6.1695;3.2482;0.1345;0.0125;0.4304;713.0;-41.3;62.5;38.4;38.94;57.49;-10.95;2.0;51.896;19.519522;-96.91552;4329.03;0.0;12.903226;19 / 19;95.5;54.0;3.807;225348;2014-11-08 13:58:05:145
8.1008;-2.6869;2.6863;9.3143;-1.3158;2.7717;-1.2135;-1.3711;-0.0854;0.3273;-0.9896;0.3236;925.0;-55.9;42.8;42.5;58.84;7.54;-62.44;2.0;50.439;19.519522;-96.91552;4329.03;0.0;12.903226;19 / 19;95.5;54.0;3.807;225848;2014-11-08 13:58:05:645
9.0543;-0.4752;3.6524;9.1553;-0.7435;3.4348;-0.1011;0.2682;0.2176;0.0663;-0.0858;-0.2085;840.0;-56.4;35.7;41.9;61.21;4.98;-68.8;2.0;57.192;19.519522;-96.91552;4329.03;0.0;12.903226;19 / 19;95.5;54.0;3.807;226348;2014-11-08 13:58:06:145
10.2873;-0.4699;2.9898;9.4219;-0.7709;2.6083;0.8653;0.301;0.3815;0.0397;-0.1254;-0.0229;728.0;-56.5;36.6;43.1;59.53;4.54;-73.53;2.0;51.385;19.519522;-96.91552;4329.03;0.0;12.903226;19 / 19;95.5;54.0;3.807;226848;2014-11-08 13:58:06:645
9.2889;0.3406;1.4455;9.3956;1.6311;2.2874;-0.1067;-1.2906;-0.8419;0.5121;0.1989;0.3108;804.0;-55.0;31.5;43.5;55.23;-9.57;-76.32;2.0;52.044;19.519522;-96.91552;4329.03;0.0;12.903226;19 / 19;95.5;54.0;3.807;227348;2014-11-08 13:58:07:145
8.8226;-0.2394;-1.3126;8.5513;4.7351;-0.7901;0.2713;-4.9745;-0.5225;-1.473;-2.6903;0.5617;265.0;-39.6;15.5;50.7;52.99;-28.87;-95.28;2.0;54.012;19.519522;-96.91552;4329.03;0.0;12.903226;19 / 19;95.5;54.0;3.807;227848;2014-11-08 13:58:07:645
9.7205;4.4807;-5.3079;6.9688;1.0011;-6.8267;2.7517;3.4797;1.5188;0.0487;0.2131;0.2096;37.0;-23.0;3.5;50.6;72.36;-5.24;-136.37;2.0;55.025;19.519522;-96.91552;4329.03;0.0;12.903226;19 / 19;95.5;54.0;3.807;228348;2014-11-08 13:58:08:145
6.0537;1.6598;-6.7319;7.036;3.259;-6.0037;-0.9823;-1.5992;-0.7282;2.2554;0.2245;-1.8674;49.0;-17.7;11.8;55.2;47.4;-19.41;-130.47;2.0;52.727;19.519522;-96.91552;4329.03;0.0;12.903226;19 / 19;95.5;54.0;3.807;228848;2014-11-08 13:58:08:645
8.6778;1.315;-9.0309;7.2985;1.2483;-6.4299;1.3793;0.0667;-2.601;2.0136;-0.1925;-0.4362;44.0;-31.4;37.3;60.7;29.65;-14.77;-127.68;2.0;52.436;19.519522;-96.91552;4329.03;0.0;12.903226;19 / 19;95.5;54.0;3.807;229348;2014-11-08 13:58:09:145
7.6483;-0.3783;-7.2083;7.333;0.8571;-6.4547;0.3152;-1.2353;-0.7537;-0.331;0.0043;0.4756;53.0;-30.5;38.2;60.5;30.92;-5.01;-131.35;2.0;50.856;19.519522;-96.91552;4329.03;0.0;12.903226;19 / 19;95.5;54.0;3.807;229848;2014-11-08 13:58:09:645
6.9007;1.0325;-5.9951;5.9373;0.0074;-7.805;0.9633;1.0251;1.8099;-1.0741;-0.0541;1.1803;37.0;-17.2;22.5;59.7;48.68;1.27;-140.83;2.0;52.847;19.519522;-96.91552;4329.03;0.0;12.903226;19 / 19;95.5;54.0;3.807;230348;2014-11-08 13:58:10:145
7.4071;1.3024;-9.1225;6.514;0.5127;-7.3127;0.8931;0.7897;-1.8098;-0.7199;0.4168;0.2495;37.0;-16.6;2.6;50.0;72.12;-3.0;-138.31;2.0;53.244;19.519522;-96.91552;4329.03;0.0;12.903226;19 / 19;95.5;54.0;3.807;230848;2014-11-08 13:58:10:645
6.037;-0.2017;-9.9078;6.4141;0.6727;-7.3876;-0.3772;-0.8745;-2.5202;3.1242;0.1723;-0.7795;35.0;-18.7;3.0;49.7;85.56;-9.33;-129.28;2.0;49.877;19.519522;-96.91552;4329.03;0.0;12.903226;19 / 19;95.5;54.0;3.807;231348;2014-11-08 13:58:11:145
5.5629;1.0529;-6.3075;6.849;-0.4236;-7.0058;-1.2861;1.4765;0.6983;-0.934;-0.0021;0.8149;28.0;-23.7;3.1;48.6;93.62;4.5;-135.73;2.0;50.168;19.519522;-96.91552;4329.03;0.0;12.903226;19 / 19;95.5;54.0;3.807;231849;2014-11-08 13:58:11:646
6.4506;0.1646;-8.3641;6.3304;-1.2504;-7.3846;0.1202;1.415;-0.9795;-0.2676;0.2298;0.5135;27.0;-27.9;1.5;45.1;120.32;7.33;-139.4;2.0;48.203;19.519522;-96.91552;4329.03;0.0;12.903226;19 / 19;95.5;54.0;3.807;232349;2014-11-08 13:58:12:146
10.0694;0.6985;-9.0285;5.7874;0.2465;-7.913;4.282;0.452;-1.1155;0.7342;-1.2024;-0.5774;25.0;-20.7;1.5;47.4;85.53;0.88;-137.82;2.0;50.548;19.519522;-96.91552;4329.03;0.0;12.903226;19 / 19;95.5;54.0;3.807;232849;2014-11-08 13:58:12:646
5.7245;-0.5136;-9.1189;5.8913;1.7702;-7.6374;-0.1667;-2.2838;-1.4815;0.69;0.0647;1.8906;25.0;-10.3;-2.7;48.4;76.82;-10.4;-142.35;2.0;48.597;19.519522;-96.91552;4329.03;0.0;12.903226;19 / 19;95.5;54.0;3.807;233349;2014-11-08 13:58:13:146
5.9316;-1.7442;-8.2606;6.2456;-1.4669;-7.4169;-0.314;-0.2773;-0.8437;-0.1542;0.277;-0.3204;22.0;-25.2;3.1;49.9;111.54;8.6;-139.9;2.0;50.541;19.519522;-96.91552;4329.03;0.0;12.903226;19 / 19;95.5;54.0;3.807;233850;2014-11-08 13:58:13:647
10.6153;-0.7901;0.914;8.525;-0.4022;-4.8305;2.0903;-0.3879;5.7444;3.0885;0.7025;-2.293;21.0;-28.6;-3.1;38.9;103.79;2.35;-119.54;2.0;52.363;19.519522;-96.91552;4329.03;0.0;12.903226;19 / 19;95.5;54.0;3.807;234350;2014-11-08 13:58:14:147
7.9703;-0.4902;-9.0902;6.517;-0.1615;-7.3262;1.4533;-0.3287;-1.764;0.379;0.24;0.841;24.0;-17.0;5.5;51.0;76.25;0.94;-138.35;2.0;56.961;19.519522;-96.91552;4329.03;0.0;12.903226;19 / 19;95.5;54.0;3.807;234850;2014-11-08 13:58:14:647
6.1513;-2.5612;-8.3264;5.9706;-2.2314;-7.4528;0.1807;-0.3298;-0.8737;0.0551;0.0157;-0.5321;22.0;-23.8;8.4;51.5;104.17;12.51;-139.92;2.0;52.241;19.519516;-96.91552;4335.48;1.8;12.903226;19 / 19;95.5;54.0;3.807;235351;2014-11-08 13:58:15:148
6.7624;-0.9367;-8.2163;6.5712;-2.085;-6.9744;0.1912;1.1483;-1.2419;0.5712;-0.2842;-0.8258;26.0;-23.4;15.2;53.7;81.74;12.28;-136.7;2.0;53.627;19.519516;-96.91552;4335.48;1.8;12.903226;19 / 19;95.5;54.0;3.807;235852;2014-11-08 13:58:15:649
7.2574;-1.8974;-6.0543;6.8955;-0.1565;-6.9712;0.3619;-1.7409;0.9169;0.4892;0.3553;-0.4381;23.0;-19.7;17.4;56.2;57.8;2.26;-137.0;2.0;52.458;19.519516;-96.91552;4335.48;1.8;12.903226;19 / 19;95.5;54.0;3.807;236352;2014-11-08 13:58:16:149
7.3532;0.5112;-7.3604;7.096;-1.0974;-6.6793;0.2572;1.6086;-0.6811;0.3827;-0.1166;-0.0882;23.0;-21.9;22.2;58.3;60.09;6.43;-133.27;2.0;52.621;19.519516;-96.91552;4335.48;1.8;12.903226;19 / 19;95.5;54.0;3.807;236853;2014-11-08 13:58:16:650
6.669;-1.6155;-6.4488;6.6881;-0.6537;-7.1423;-0.0191;-0.9618;0.6935;-0.9361;0.0953;0.2719;23.0;-20.3;20.1;57.5;57.07;3.82;-136.88;2.0;65.798;19.519508;-96.91552;4335.48;0.0;12.903226;19 / 19;95.5;54.0;3.807;237353;2014-11-08 13:58:17:150
6.6553;0.2251;-8.8143;6.4839;-0.7212;-7.3218;0.1714;0.9462;-1.4924;-0.5654;-0.2844;0.7396;22.0;-19.5;8.6;53.0;76.21;4.22;-138.47;2.0;57.456;19.519508;-96.91552;4335.48;0.0;12.903226;19 / 19;95.5;54.0;3.807;237853;2014-11-08 13:58:17:650
11.3982;3.0885;-7.7345;7.2144;0.6873;-6.6069;4.1838;2.4012;-1.1276;-0.7001;1.4299;-2.6411;24.0;-25.7;-3.4;41.1;108.51;4.06;-125.3;2.0;51.675;19.519508;-96.91552;4335.48;0.0;12.903226;19 / 19;95.5;54.0;3.807;238353;2014-11-08 13:58:18:150
14.8536;-7.3909;-9.584;7.2325;0.8735;-6.5649;7.6211;-8.2644;-3.0191;1.1316;-2.3582;4.8712;31.0;-11.0;-18.3;28.5;102.35;-48.71;-119.32;2.0;56.197;19.519508;-96.91552;4335.48;0.0;12.903226;19 / 19;95.5;54.0;3.807;238853;2014-11-08 13:58:18:650
11.5909;-0.9463;-7.8272;5.0208;-4.1939;-7.3057;6.5702;3.2476;-0.5215;-0.0216;0.6168;-3.077;30.0;-43.3;20.3;51.1;222.47;34.19;-155.44;2.0;53.4;19.519508;-96.91552;4335.48;0.0;12.903226;18 / 19;95.5;54.0;3.807;239354;2014-11-08 13:58:19:151
3.699;-4.03;-4.6442;3.8809;7.069;-5.5802;-0.1818;-11.099;0.936;0.3523;-0.6858;3.918;33.0;-2.0;-16.3;32.2;62.46;-46.12;-145.18;2.0;55.578;19.519508;-96.91552;4335.48;0.0;12.903226;18 / 19;95.5;54.0;3.807;239854;2014-11-08 13:58:19:651
12.2972;6.2285;-6.1992;7.64;-0.9557;-6.0734;4.6572;7.1842;-0.1257;0.1787;0.8567;-3.2435;35.0;-41.0;20.9;52.2;46.1;5.59;-128.48;2.0;51.937;19.519508;-96.91552;4335.48;0.0;12.903226;18 / 19;95.5;54.0;3.807;240354;2014-11-08 13:58:20:151
1.1378;-3.4207;-3.3567;7.3143;-2.3095;-6.1104;-6.1765;-1.1112;2.7537;0.8583;0.1409;0.8381;32.0;5.9;-21.3;27.0;132.67;10.9;-128.53;2.0;56.25;19.519508;-96.91552;4335.48;0.0;12.903226;18 / 19;95.5;54.0;3.807;240854;2014-11-08 13:58:20:651
12.4307;0.6428;-7.4328;7.4972;-1.7927;-6.0621;4.9335;2.4356;-1.3707;-1.1657;0.1316;1.6035;36.0;-44.6;21.6;52.4;182.9;36.78;-143.06;2.0;54.121;19.519508;-96.91552;4335.48;0.0;12.903226;18 / 19;95.5;54.0;3.807;241354;2014-11-08 13:58:21:151
5.7886;0.5279;-5.4989;7.4732;-1.2675;-6.2222;-1.6846;1.7954;0.7233;-0.9776;2.612;-1.3699;27.0;-15.7;-19.8;25.0;159.14;8.12;-129.59;2.0;51.031;19.519508;-96.91552;4335.48;0.0;12.903226;18 / 19;95.5;54.0;3.807;241854;2014-11-08 13:58:21:651
8.2702;3.3064;1.8771;8.9686;1.804;-3.5328;-0.6984;1.5024;5.4098;-0.8669;0.588;0.0125;211.0;-14.1;-23.0;6.9;180.63;-7.46;-117.4;2.0;51.807;19.519508;-96.91552;4335.48;0.0;12.903226;18 / 19;95.5;54.0;3.807;242354;2014-11-08 13:58:22:151
8.0427;4.8806;3.2663;9.2947;3.0425;-0.7234;-1.2519;1.8381;3.9897;-0.1222;0.1121;-0.3798;340.0;-8.0;-24.6;0.8;178.99;-18.07;-94.45;2.0;55.303;19.519508;-96.91552;4335.48;0.0;12.903226;18 / 19;95.5;54.0;3.807;242861;2014-11-08 13:58:22:658
8.4773;3.8104;4.2641;8.8904;4.1301;-0.2689;-0.4132;-0.3198;4.5329;0.0722;-0.559;0.5191;311.0;-7.4;-25.0;-0.9;183.02;-25.89;-90.22;2.0;54.494;19.519508;-96.91552;4335.48;0.0;12.903226;18 / 19;95.5;54.0;3.807;243361;2014-11-08 13:58:23:158
12.2398;3.1603;3.1861;9.2102;1.3267;3.0954;3.0295;1.8337;0.0907;1.3563;0.5276;1.2866;231.0;-24.1;-17.8;14.2;126.29;-7.78;-71.42;2.0;55.483;19.519508;-96.91552;4335.48;0.0;12.903226;18 / 19;95.5;54.0;3.807;243861;2014-11-08 13:58:23:658
7.9781;6.362;3.5859;8.2406;3.9902;3.5131;-0.2625;2.3718;0.0728;0.1659;-0.7744;-0.7545;484.0;-31.3;-9.5;28.0;98.95;-9.26;-66.23;2.0;52.883;19.519508;-96.91552;4335.48;0.0;12.903226;18 / 19;95.5;54.0;3.807;244361;2014-11-08 13:58:24:158
4.0276;8.4048;1.257;5.7548;7.6914;1.9734;-1.7272;0.7134;-0.7164;-0.4716;-0.1742;-0.1318;299.0;-7.1;-19.6;29.5;114.36;-51.66;-71.07;2.0;51.907;19.519508;-96.91552;4335.48;0.0;12.903226;18 / 19;95.5;54.0;3.807;244862;2014-11-08 13:58:24:659
0.3789;9.6869;2.0381;2.975;8.9695;2.6206;-2.5961;0.7174;-0.5826;0.1835;0.1728;-0.3595;381.0;1.5;-21.9;26.7;138.3;-58.17;-55.61;2.0;48.529;19.519508;-96.91552;4335.48;0.0;12.903226;18 / 19;95.5;54.0;3.807;245363;2014-11-08 13:58:25:160
4.5376;9.1339;0.8045;3.3432;9.029;1.8629;1.1944;0.1049;-1.0584;0.5835;0.4722;0.6389;611.0;-19.1;-11.7;37.0;104.57;-67.24;-53.77;2.0;49.608;19.519508;-96.91552;4341.94;0.0;9.677419;18 / 19;95.5;54.0;3.807;245864;2014-11-08 13:58:25:661
3.3992;8.8843;1.0774;3.0777;9.0833;2.0476;0.3215;-0.199;-0.9702;0.0115;-0.0138;0.1318;35.0;-23.1;-8.8;39.1;97.14;-67.86;-56.36;0.0;48.681;19.519508;-96.91552;4341.94;0.0;9.677419;18 / 19;95.5;54.0;3.807;246364;2014-11-08 13:58:26:161
3.8253;8.843;1.5473;3.7095;8.7749;2.326;0.1158;0.068;-0.7788;0.2458;0.0099;0.7864;31.0;-24.6;-9.2;38.3;96.75;-67.36;-54.04;0.0;50.703;19.519508;-96.91552;4341.94;0.0;9.677419;18 / 19;95.5;54.0;3.807;246864;2014-11-08 13:58:26:661
9.2195;6.4853;12.0135;5.4545;4.8217;6.5704;3.765;1.6636;5.4431;-0.5649;0.3214;-0.3084;11.0;-49.9;10.6;23.5;73.24;-29.45;-39.7;0.0;51.994;19.519503;-96.91553;4341.94;0.0;9.677419;18 / 19;95.5;54.0;3.807;247364;2014-11-08 13:58:27:161
6.3273;3.5476;7.1299;4.827;4.2756;7.3885;1.5003;-0.728;-0.2585;0.388;0.3028;-0.2919;11.0;-42.4;-1.2;19.4;83.25;-17.09;-32.76;0.0;51.599;19.519503;-96.91553;4341.94;0.0;9.677419;18 / 19;95.5;54.0;3.807;247864;2014-11-08 13:58:27:661
3.0562;5.8873;6.6038;2.7491;5.3831;7.7223;0.3071;0.5042;-1.1185;-1.6003;2.526;-1.0136;106.0;-21.0;-19.0;11.3;127.02;-33.29;-19.6;0.0;49.831;19.519503;-96.91553;4341.94;0.0;9.677419;18 / 19;95.5;54.0;3.807;248364;2014-11-08 13:58:28:161
1.6939;7.4424;6.0286;0.621;6.9207;6.9201;1.0729;0.5216;-0.8915;0.2325;0.4173;0.0162;349.0;-15.2;-22.0;14.0;146.52;-44.89;-5.13;2.0;51.344;19.519503;-96.91553;4341.94;0.0;9.677419;18 / 19;95.5;54.0;3.807;248864;2014-11-08 13:58:28:661
3.5763;9.2273;3.9091;1.9426;8.0268;5.2885;1.6337;1.2005;-1.3793;1.0139;-1.4088;0.2104;191.0;-21.0;-19.6;20.1;134.86;-52.5;-11.43;2.0;52.66;19.519497;-96.91553;4341.94;0.0;9.677419;18 / 19;95.5;54.0;3.807;249364;2014-11-08 13:58:29:161
0.4369;8.6263;-5.715;0.1215;9.0785;-3.7063;0.3154;-0.4522;-2.0086;-0.3012;-0.2184;-0.1547;60.0;11.9;-5.3;39.0;21.42;-67.78;-178.12;2.0;50.984;19.519497;-96.91553;4341.94;0.0;9.677419;18 / 19;95.5;54.0;3.807;249864;2014-11-08 13:58:29:661
-3.9307;6.3135;-6.1256;-4.1728;7.5505;-4.6635;0.2421;-1.237;-1.4621;0.7843;-0.665;-0.5824;72.0;20.0;3.5;33.6;352.6;-60.32;142.72;2.0;52.675;19.519497;-96.91553;4341.94;0.0;9.677419;18 / 19;95.5;54.0;3.807;250364;2014-11-08 13:58:30:161
-3.7481;7.106;-5.5809;-3.1617;7.9506;-4.7918;-0.5864;-0.8446;-0.7891;-0.8647;0.9396;1.0607;75.0;17.2;-1.2;36.3;349.81;-54.17;146.58;0.0;50.821;19.519497;-96.91553;4341.94;0.0;9.677419;18 / 19;95.5;54.0;3.807;250864;2014-11-08 13:58:30:661
5.4336;9.0513;-1.0738;3.9292;8.9755;-0.4149;1.5045;0.0758;-0.6589;-0.4445;2.1665;0.9465;122.0;-12.1;-12.1;39.0;75.31;-66.24;-96.03;2.0;51.87;19.519497;-96.91553;4341.94;0.0;9.677419;18 / 19;95.5;54.0;3.807;251364;2014-11-08 13:58:31:161
6.6188;7.2437;5.9765;4.9568;6.8716;4.9377;1.6619;0.372;1.0389;1.424;0.228;0.0482;717.0;-39.0;-3.9;29.0;87.42;-44.48;-45.11;2.0;53.081;19.519497;-96.91553;4341.94;0.0;9.677419;18 / 19;95.5;54.0;3.807;251864;2014-11-08 13:58:31:661
5.7976;6.8037;3.38;5.0449;7.5172;3.7698;0.7526;-0.7134;-0.3898;0.3417;0.6482;0.1696;689.0;-46.8;5.0;29.4;69.93;-50.04;-53.23;2.0;53.269;19.519497;-96.91553;4341.94;0.0;9.677419;18 / 19;95.5;54.0;3.807;252365;2014-11-08 13:58:32:162
4.4263;7.3706;3.8421;4.909;7.7454;3.4759;-0.4827;-0.3748;0.3662;0.4147;-0.0719;-0.0586;678.0;-47.4;6.5;29.8;67.97;-52.17;-54.7;2.0;52.384;19.519497;-96.91553;4341.94;0.0;9.677419;18 / 19;95.5;54.0;3.807;252865;2014-11-08 13:58:32:662
5.6036;7.4933;3.1035;4.8773;7.8624;3.2504;0.7264;-0.3692;-0.1469;0.2282;-0.2961;-0.1228;638.0;-47.7;6.9;30.6;66.75;-53.12;-56.46;2.0;52.548;19.5195;-96.915535;4341.94;0.0;9.677419;18 / 19;95.5;54.0;3.807;253365;2014-11-08 13:58:33:162
5.2319;7.2718;3.6955;4.5573;8.0615;3.2269;0.6746;-0.7897;0.4685;0.2826;0.0961;0.0868;610.0;-47.3;6.8;30.2;67.62;-55.29;-54.7;2.0;62.326;19.5195;-96.915535;4341.94;0.0;9.677419;18 / 19;95.5;54.0;3.807;253865;2014-11-08 13:58:33:662
5.3474;7.6746;3.3291;4.703;8.0604;3.0136;0.6445;-0.3858;0.3155;-0.1558;0.0844;0.0056;604.0;-47.7;6.8;29.8;65.87;-55.07;-56.31;2.0;58.426;19.5195;-96.915535;4341.94;0.0;9.677419;18 / 19;95.5;54.0;3.807;254366;2014-11-08 13:58:34:163
5.2445;7.2951;3.0754;4.783;7.9634;3.1427;0.4615;-0.6683;-0.0673;0.0072;-0.078;-0.0197;604.0;-48.1;7.6;29.8;65.11;-54.3;-56.69;2.0;57.128;19.5195;-96.915535;4341.94;0.0;9.677419;18 / 19;95.5;54.0;3.807;254866;2014-11-08 13:58:34:663
5.8885;7.8817;2.8443;4.8733;7.9445;3.0508;1.0153;-0.0627;-0.2065;0.1579;0.1635;0.0834;600.0;-49.2;8.4;29.8;63.68;-54.11;-57.95;2.0;53.947;19.5195;-96.915535;4341.94;0.0;9.677419;18 / 19;95.5;54.0;3.807;255366;2014-11-08 13:58:35:163
5.2475;7.3035;3.6452;4.7524;7.6143;3.9507;0.4951;-0.3108;-0.3055;0.1862;0.0463;-0.049;625.0;-49.4;8.8;26.8;67.54;-50.94;-50.26;2.0;53.175;19.5195;-96.915535;4341.94;0.0;9.677419;18 / 19;95.5;54.0;3.807;255866;2014-11-08 13:58:35:663
4.5191;6.7247;4.0253;4.7861;7.6463;3.8466;-0.2671;-0.9216;0.1786;0.2027;0.2655;0.122;624.0;-49.2;8.8;25.9;65.98;-51.23;-51.21;2.0;53.298;19.5195;-96.915535;4341.94;0.0;9.677419;18 / 19;95.5;54.0;3.807;256366;2014-11-08 13:58:36:163
5.4061;7.1245;3.5787;5.0101;7.5375;3.7755;0.396;-0.413;-0.1968;0.1691;0.0815;0.0799;536.0;-50.0;10.8;24.5;63.16;-50.45;-52.04;2.0;52.588;19.5195;-96.915535;4341.94;0.0;9.677419;18 / 19;93.7;54.0;3.818;256866;2014-11-08 13:58:36:663
5.6354;7.2419;4.0157;5.0904;7.461;3.8199;0.5449;-0.2191;0.1957;0.0067;0.1076;0.0357;517.0;-51.3;12.5;24.1;60.32;-49.77;-53.64;2.0;52.144;19.5195;-96.915535;4341.94;0.0;9.677419;18 / 19;93.7;54.0;3.818;257366;2014-11-08 13:58:37:163
5.8855;7.2353;3.8846;5.0675;7.4979;3.7779;0.818;-0.2626;0.1067;-0.3438;0.3033;0.0397;490.0;-51.1;12.5;23.6;59.74;-50.72;-53.54;2.0;54.215;19.5195;-96.915535;4341.94;0.0;9.677419;18 / 19;93.7;54.0;3.818;257866;2014-11-08 13:58:37:663
4.8345;7.1084;4.1085;4.7604;7.51;4.1363;0.0741;-0.4016;-0.0279;0.0738;0.049;-0.0541;536.0;-50.8;11.6;22.4;62.61;-49.16;-49.88;2.0;53.851;19.5195;-96.915535;4341.94;0.0;9.677419;18 / 19;93.7;54.0;3.818;258367;2014-11-08 13:58:38:164
5.1098;7.2359;4.0971;4.73;7.6321;3.9432;0.3799;-0.3963;0.1539;0.2282;-0.0469;-0.0069;491.0;-50.3;10.4;22.4;62.74;-51.1;-50.18;2.0;52.478;19.5195;-96.915535;4341.94;0.0;9.677419;18 / 19;93.7;54.0;3.818;258867;2014-11-08 13:58:38:664
5.0212;7.6387;3.7499;4.7954;7.7504;3.6201;0.2258;-0.1117;0.1299;0.0354;-0.0615;-0.0157;450.0;-50.3;10.8;22.4;59.65;-52.33;-53.06;2.0;52.291;19.5195;-96.915535;4341.94;0.0;9.677419;18 / 19;93.7;54.0;3.818;259367;2014-11-08 13:58:39:164
4.8878;7.6273;3.863;4.7671;7.7575;3.6424;0.1207;-0.1302;0.2207;-0.1009;0.0157;-0.0226;461.0;-55.7;10.8;22.8;59.04;-52.52;-53.04;2.0;52.34;19.5195;-96.915535;4341.94;0.0;9.677419;18 / 19;93.7;54.0;3.818;259867;2014-11-08 13:58:39:664
