sep=;
ACCELEROMETER X (m/s²);ACCELEROMETER Y (m/s²);ACCELEROMETER Z (m/s²);GRAVITY X (m/s²);GRAVITY Y (m/s²);GRAVITY Z (m/s²);LINEAR ACCELERATION X (m/s²);LINEAR ACCELERATION Y (m/s²);LINEAR ACCELERATION Z (m/s²);GYROSCOPE X (rad/s);GYROSCOPE Y (rad/s);GYROSCOPE Z (rad/s);LIGHT (lux);MAGNETIC FIELD X (μT);MAGNETIC FIELD Y (μT);MAGNETIC FIELD Z (μT);ORIENTATION X (°);ORIENTATION Y (°);ORIENTATION Z (°);PROXIMITY (i);SOUND LEVEL (dB);LOCATION Latitude : ;LOCATION Longitude : ;LOCATION Altitude ( m);LOCATION Speed ( Kmh);LOCATION Accuracy ( m);Satellites in range;Temperature (F);Level (%);Voltage (Volt);Time since start in ms ;YYYY-MO-DD HH-MI-SS_SSS
-3.6326;9.7324;3.456;-1.4768;9.4218;2.2843;1.1428;-0.2365;-0.515;-0.1872;0.1971;-0.3846;24.0;685.3;-238.7;1015.1;238.28;-75.03;25.89;0.0;70.578;19.519749;-96.915634;4348.39;0.0;38.709675;10 / 17;98.8;57.0;3.912;41;2014-11-08 13:51:29:665
-2.4582;8.3785;2.1727;-1.6657;9.5506;1.4774;-0.7925;-1.172;0.6954;0.2937;1.4661;0.4906;25.0;684.3;-237.8;1026.1;256.61;-77.24;45.03;0.0;66.73;19.519749;-96.915634;4348.39;0.0;38.709675;10 / 17;98.8;57.0;3.912;587;2014-11-08 13:51:30:211
-1.8573;9.6265;-0.0198;-1.6972;9.6346;0.6815;-0.1601;-0.0081;-0.7013;0.0258;0.0024;-0.0522;26.0;679.7;-239.8;1032.1;279.26;-79.25;68.12;0.0;61.71;19.519749;-96.915634;4348.39;0.0;38.709675;10 / 17;98.8;57.0;3.912;1092;2014-11-08 13:51:30:716
-1.4156;9.5594;0.4776;-1.1228;9.7271;0.5418;0.2418;-0.0892;-0.2456;0.0727;0.0911;0.1635;26.0;678.3;-239.8;1033.7;276.03;-82.7;64.24;0.0;33.363;19.519749;-96.915634;4348.39;0.0;38.709675;10 / 17;98.8;57.0;3.912;1613;2014-11-08 13:51:31:237
-0.0916;9.5822;0.51;-0.7141;9.7649;0.5539;0.6225;-0.1827;-0.044;0.0205;0.2104;0.1246;26.0;677.9;-241.0;1033.7;268.85;-84.19;56.73;0.0;31.767;19.519749;-96.915634;4348.39;0.0;38.709675;10 / 17;98.8;57.0;3.912;2146;2014-11-08 13:51:31:770
-0.6404;9.2063;1.0792;-0.8867;9.7519;0.5337;-0.9443;-1.444;1.2069;0.0455;0.0735;0.0274;26.0;676.3;-241.4;1034.5;263.5;-84.72;51.35;0.0;42.532;19.519749;-96.915634;4348.39;0.0;38.709675;10 / 17;98.8;57.0;3.912;2659;2014-11-08 13:51:32:283
3.0628;8.3683;0.7835;1.3332;9.7113;0.2896;3.694;-0.672;0.1504;0.3987;1.1579;1.2602;28.0;670.9;-243.2;1033.6;136.05;-82.0;-77.75;0.0;38.827;19.519749;-96.915634;4348.39;0.0;38.709675;10 / 17;98.8;57.0;3.912;3164;2014-11-08 13:51:32:788
1.1983;9.7767;-0.0215;0.7476;9.7743;-0.2743;1.9543;1.1776;-0.5705;-0.2501;-1.1955;-0.2213;26.0;679.6;-244.0;1026.6;101.62;-79.48;-113.51;0.0;61.489;19.519749;-96.915634;4348.39;0.0;38.709675;10 / 17;98.8;57.0;3.912;3673;2014-11-08 13:51:33:297
0.1095;9.2584;0.2131;-0.7461;9.7155;1.1058;0.8557;-0.4571;-0.8927;-0.0301;-1.7619;0.2527;32.0;682.9;-240.4;1006.6;269.7;-85.84;56.47;0.0;68.288;19.519749;-96.915634;4348.39;0.0;38.709675;10 / 17;98.8;57.0;3.912;4173;2014-11-08 13:51:33:797
-0.3921;9.7743;2.1985;-0.4588;9.6419;1.7302;0.0667;0.1324;0.4683;-0.0993;0.0075;-0.0967;55.0;680.8;-239.2;1002.4;231.45;-79.94;18.37;0.0;67.353;19.519749;-96.915634;4348.39;0.0;38.709675;10 / 17;98.8;57.0;3.912;4697;2014-11-08 13:51:34:321
-0.5351;4.5747;5.5599;-2.9352;9.1963;1.727;1.6537;-3.2204;1.5961;-0.2996;1.6522;1.29;27.0;690.9;-232.4;1013.8;272.35;-63.64;63.72;0.0;66.039;19.519749;-96.915634;4348.39;0.0;38.709675;10 / 17;98.8;57.0;3.912;5245;2014-11-08 13:51:34:869
-2.2625;10.3232;0.5896;-2.7313;9.4181;-0.0988;0.3035;0.7874;0.6932;0.4376;0.9694;-0.4591;718.0;685.8;-234.6;1033.6;301.94;-73.82;92.07;0.0;66.171;19.519749;-96.915634;4348.39;0.0;38.709675;10 / 17;98.8;57.0;3.912;5791;2014-11-08 13:51:35:415
-1.7867;8.5677;-0.6237;-2.3849;9.5112;0.1418;0.2712;-0.7416;-1.2042;0.0541;-0.9151;-0.028;28.0;687.0;-234.6;1028.8;299.64;-74.29;89.57;0.0;48.478;19.519749;-96.915634;4348.39;0.0;38.709675;10 / 17;98.8;57.0;3.912;6370;2014-11-08 13:51:35:994
-1.397;9.4607;0.893;-1.125;9.7049;0.848;-0.272;-0.2442;0.0451;-0.0029;0.1249;0.3268;31.0;687.2;-236.8;1016.0;267.92;-79.76;55.82;0.0;68.115;19.519749;-96.915634;4348.39;0.0;38.709675;10 / 17;98.8;57.0;3.912;6958;2014-11-08 13:51:36:582
-0.5974;9.7354;1.0217;-0.7073;9.7348;0.9504;-0.2163;0.1993;-0.1352;0.388;-0.0421;-0.3526;30.0;683.9;-240.2;1014.4;222.11;-81.57;8.91;0.0;70.53;19.519749;-96.915634;4348.39;0.0;38.709675;10 / 17;98.8;57.0;3.912;7489;2014-11-08 13:51:37:113
-1.2749;8.7538;0.3418;-0.905;9.7636;0.1547;-0.2862;-0.4843;-0.7197;0.2384;-1.1958;0.3593;29.0;685.8;-237.3;1009.4;294.34;-80.62;82.09;0.0;66.509;19.519749;-96.915634;4348.39;0.0;38.709675;10 / 17;98.8;57.0;3.912;8035;2014-11-08 13:51:37:659
-0.9158;9.3482;0.738;-1.4086;9.6655;0.8738;0.4928;-0.3174;-0.1358;0.0972;0.167;-0.0613;61.0;679.4;-239.3;1001.1;270.39;-80.27;58.19;0.0;50.848;19.519749;-96.915634;4348.39;0.0;38.709675;10 / 17;98.8;57.0;3.912;8566;2014-11-08 13:51:38:190
-1.8902;9.6205;0.0622;-2.2365;9.3423;1.9723;0.3463;0.2782;-1.91;-0.5451;1.6775;-0.7731;32.0;689.3;-233.5;1005.5;240.78;-77.53;28.07;0.0;70.989;19.519749;-96.915634;4348.39;0.0;38.709675;10 / 17;98.8;57.0;3.912;9100;2014-11-08 13:51:38:724
-2.9868;10.4716;0.7159;-0.4825;9.7874;0.3799;-2.5043;0.6842;0.3359;-0.0125;0.2104;0.7268;792.0;673.3;-241.6;1036.8;264.07;-86.41;51.78;0.0;70.945;19.519749;-96.915634;4348.39;0.0;38.709675;10 / 17;98.8;57.0;3.912;9636;2014-11-08 13:51:39:260
-0.7721;7.7788;1.8435;0.5757;9.4433;2.5812;-0.165;-1.6483;-0.7892;-0.2634;-1.4674;0.9428;24.0;681.3;-242.3;1012.6;200.95;-74.35;-12.57;0.0;65.693;19.519749;-96.915634;4348.39;0.0;38.709675;10 / 17;98.8;57.0;3.912;10159;2014-11-08 13:51:39:783
3.6823;11.9189;-3.1035;-0.364;9.1304;3.56;4.0924;-0.8728;-3.9987;-2.2815;0.4402;-0.4732;21.0;660.7;-235.3;989.1;226.12;-80.07;13.35;0.0;69.033;19.519749;-96.915634;4348.39;0.0;38.709675;10 / 17;98.8;57.0;3.912;10737;2014-11-08 13:51:40:361
-5.5605;3.6565;5.785;-6.9833;4.7798;4.9555;1.4228;-1.1233;0.8295;0.5372;0.742;1.1561;53.0;690.0;-204.6;1000.9;259.4;-20.55;50.74;0.0;63.503;19.519749;-96.915634;4348.39;0.0;38.709675;10 / 17;98.8;57.0;3.912;11253;2014-11-08 13:51:40:877
2.3026;1.4126;3.1873;-4.3691;8.1624;3.2337;6.6717;-6.7498;-0.0464;3.1321;0.3665;-1.1201;60.0;687.5;-227.7;999.9;262.43;-56.34;53.49;0.0;64.055;19.519749;-96.915634;4348.39;0.0;38.709675;10 / 17;98.8;57.0;3.912;11774;2014-11-08 13:51:41:398
-7.7351;6.2255;1.9956;-5.5365;8.0513;-0.8327;-0.6453;-0.5162;1.1452;0.0099;0.6123;0.2224;26.0;695.1;-223.6;1022.0;301.74;-55.19;98.55;0.0;63.695;19.519749;-96.915634;4348.39;0.0;38.709675;10 / 17;98.8;57.0;3.912;12334;2014-11-08 13:51:41:958
-7.6567;8.7831;-1.8387;-4.8888;8.4207;-1.1669;-2.7679;0.3624;-0.6718;0.6463;-1.5207;0.6932;43.0;687.6;-232.4;1007.8;301.94;-68.18;93.36;0.0;63.197;19.519749;-96.915634;4348.39;0.0;38.709675;10 / 17;98.8;57.0;3.912;12843;2014-11-08 13:51:42:467
-5.4941;8.2851;-1.7358;-5.32;8.1329;-1.313;-0.2424;0.0544;-0.8166;-0.2762;-0.7638;0.3619;58.0;680.8;-237.3;1001.7;311.64;-59.41;106.22;0.0;58.67;19.519749;-96.915634;4348.39;0.0;38.709675;10 / 17;98.8;57.0;3.912;13368;2014-11-08 13:51:42:992
-4.5795;8.4845;1.7202;-3.8176;8.5639;2.8733;-0.1769;-0.2034;-2.3064;-1.9944;1.5284;0.1715;77.0;678.1;-233.2;994.9;284.4;-69.49;75.23;0.0;67.302;19.519749;-96.915634;4348.39;0.0;38.709675;10 / 17;98.8;57.0;3.912;13875;2014-11-08 13:51:43:499
-2.1721;4.8159;5.7886;-4.8458;5.8678;6.1852;2.6737;-1.0519;-0.3967;-0.1803;0.0439;-0.4088;30.0;687.5;-214.4;995.4;251.1;-42.73;38.41;0.0;59.468;19.519749;-96.915634;4348.39;0.0;38.709675;10 / 17;98.8;57.0;3.912;14409;2014-11-08 13:51:44:033
-5.9472;3.4058;6.262;-6.2008;3.6916;6.6402;0.2536;-0.2858;-0.3782;0.6187;-0.1824;-0.371;35.0;682.7;-203.2;994.9;256.18;-21.98;42.6;0.0;61.559;19.519749;-96.915634;4348.39;0.0;38.709675;10 / 17;98.8;57.0;3.912;14976;2014-11-08 13:51:44:600
-6.1435;6.6864;3.7272;-5.8941;7.0157;3.4942;-0.2494;-0.3293;0.2329;1.3111;0.31;1.7132;52.0;688.9;-220.3;996.3;265.59;-45.68;59.34;0.0;63.765;19.519749;-96.915634;4348.39;0.0;38.709675;10 / 17;98.8;57.0;3.912;15499;2014-11-08 13:51:45:123
-2.5253;7.3358;0.7661;-3.7761;8.6084;2.7941;1.2508;-1.2726;-2.0279;-2.3044;4.068;0.0085;69.0;689.6;-224.6;1001.7;263.24;-61.38;53.5;0.0;34.881;19.519749;-96.915634;4348.39;0.0;38.709675;10 / 17;98.8;57.0;3.912;16030;2014-11-08 13:51:45:654
0.8464;10.0832;0.7099;2.6651;9.3823;1.0202;-1.8188;0.7009;-0.3103;-0.2288;-0.2109;-0.1627;28.0;663.6;-247.2;1032.5;144.47;-73.08;-69.05;0.0;69.961;19.519749;-96.915634;4348.39;0.0;38.709675;10 / 17;99.3;57.0;3.944;16581;2014-11-08 13:51:46:205
3.7332;6.5098;3.4351;1.5841;9.433;2.1633;2.1491;-2.9232;1.2718;-0.3539;-1.4687;-0.3103;21.0;672.5;-249.0;1024.3;177.15;-74.13;-36.21;0.0;68.513;19.519749;-96.915634;4348.39;0.0;38.709675;10 / 17;99.3;57.0;3.944;17121;2014-11-08 13:51:46:745
1.1851;9.8468;0.6644;0.8771;9.7198;0.963;0.308;0.127;-0.2986;-0.184;-0.722;-0.1071;26.0;677.3;-246.6;1023.4;171.32;-82.37;-42.33;0.0;66.309;19.519749;-96.915634;4348.39;0.0;38.709675;10 / 17;99.3;57.0;3.944;17675;2014-11-08 13:51:47:299
0.1341;15.6371;-7.1096;0.5073;9.7877;0.3362;-0.3733;5.8494;-7.4458;2.2102;0.2269;-0.563;26.0;679.4;-245.0;1028.3;157.21;-86.44;-56.47;0.0;65.546;19.519749;-96.915634;4348.39;0.0;38.709675;10 / 17;99.3;57.0;3.944;18238;2014-11-08 13:51:47:862
0.5644;8.8849;-0.9655;-0.0169;9.8046;0.198;-1.5466;0.2891;-2.944;0.1973;0.0828;-0.1486;28.0;674.2;-244.2;1036.4;217.79;-88.84;4.87;0.0;68.573;19.519749;-96.915634;4348.39;0.0;38.709675;10 / 17;99.3;57.0;3.944;18766;2014-11-08 13:51:48:390
-0.8727;10.407;-3.1202;0.0289;9.7968;-0.4394;-0.3424;-0.3006;-2.1037;-0.3555;-0.2743;0.1449;28.0;674.6;-242.6;1037.2;84.21;-88.42;-129.1;0.0;63.423;19.519749;-96.915634;4348.39;0.0;38.709675;10 / 17;99.3;57.0;3.944;19269;2014-11-08 13:51:48:893
-1.2809;11.5712;-0.8446;-0.1557;9.8052;-0.0593;2.7065;-1.6144;3.0895;-0.2682;-0.587;0.0213;28.0;677.9;-242.6;1031.8;357.94;-89.25;144.64;0.0;67.884;19.519749;-96.915634;4348.39;0.0;38.709675;10 / 17;99.3;57.0;3.944;19860;2014-11-08 13:51:49:484
0.0611;10.4208;-0.3208;0.174;9.8021;-0.2443;-0.759;0.1494;0.5057;0.0796;0.3041;-0.1033;28.0;680.5;-242.6;1027.6;83.72;-87.51;-130.3;0.0;72.65;19.519749;-96.915634;4348.39;0.0;38.709675;10 / 17;99.3;57.0;3.944;20411;2014-11-08 13:51:50:035
-0.1628;9.1267;-0.5507;0.0167;9.7938;-0.5022;0.3795;-0.4851;0.3154;0.542;0.3507;-0.3739;28.0;679.5;-242.2;1034.1;35.6;-87.06;-178.1;0.0;35.511;19.519749;-96.915634;4348.39;0.0;38.709675;10 / 17;99.3;57.0;3.944;20948;2014-11-08 13:51:50:572
-1.0032;9.0058;-0.5076;-0.4374;9.79;-0.3686;-0.5657;-0.7842;-0.1389;-0.3028;-0.4607;0.2581;20.0;677.7;-239.4;1037.3;339.81;-85.22;127.01;0.0;58.03;19.519749;-96.915634;4348.39;0.0;38.709675;10 / 17;99.3;57.0;3.944;21455;2014-11-08 13:51:51:079
-3.5608;10.3705;-1.7011;-1.1211;9.7407;0.182;-3.9444;0.5167;2.0782;-0.2911;0.02;0.2882;28.0;678.7;-240.7;1035.5;342.35;-86.94;129.31;0.0;59.134;19.519749;-96.915634;4348.39;0.0;38.709675;10 / 17;99.3;57.0;3.944;21967;2014-11-08 13:51:51:591
-4.8345;10.1831;0.2131;-1.1252;9.7418;0.0367;-1.1377;0.2389;-1.069;0.0722;0.6834;0.2732;30.0;678.7;-241.1;1034.3;300.15;-83.41;88.13;0.0;65.229;19.519749;-96.915634;4348.39;0.0;38.709675;10 / 17;99.3;57.0;3.944;22476;2014-11-08 13:51:52:100
-0.8368;8.3492;-1.3348;-0.355;9.7988;-0.1687;0.9853;0.2718;2.4815;0.6677;-0.249;-0.3646;28.0;677.4;-241.1;1036.4;309.34;-86.76;96.67;0.0;71.636;19.519749;-96.915634;4348.39;0.0;38.709675;10 / 17;99.3;57.0;3.944;22988;2014-11-08 13:51:52:612
-1.2306;9.9395;1.9375;-0.7937;9.7728;0.1807;-0.4289;0.1723;1.579;-0.224;-0.6863;0.0959;26.0;679.6;-241.1;1033.5;292.83;-85.7;80.33;0.0;66.996;19.519749;-96.915634;4348.39;0.0;38.709675;10 / 17;99.3;57.0;3.944;23524;2014-11-08 13:51:53:148
-0.3382;8.9196;0.8481;-0.6916;9.7808;-0.1679;0.1641;-0.8736;0.9585;0.5175;0.0748;-0.3124;26.0;681.5;-240.7;1030.4;326.93;-87.24;113.75;0.0;68.149;19.519749;-96.915634;4348.39;0.0;38.709675;10 / 17;99.3;57.0;3.944;24030;2014-11-08 13:51:53:654
-0.4369;8.4108;0.5842;-0.4626;9.7817;0.5237;4.0E-4;-1.369;0.0064;0.1334;0.4746;-0.0397;26.0;677.0;-240.7;1031.6;320.65;-86.06;107.75;0.0;61.327;19.519749;-96.915634;4348.39;0.0;38.709675;10 / 17;99.3;57.0;3.944;24539;2014-11-08 13:51:54:163
-2.6085;10.2364;-0.1766;-1.3477;9.7111;-0.2216;-1.2608;0.5253;0.0451;0.134;0.0538;0.1894;27.0;680.4;-239.7;1034.0;316.17;-82.59;104.07;0.0;61.622;19.519749;-96.915634;4348.39;0.0;38.709675;10 / 17;99.3;57.0;3.944;25071;2014-11-08 13:51:54:695
-5.2421;10.7554;-2.8545;-2.2369;9.3006;-2.1601;-2.64;4.2483;-10.3836;2.542;-1.8834;-0.274;28.0;684.9;-239.3;1033.2;321.24;-78.55;109.64;0.0;64.418;19.519749;-96.915634;4348.39;0.0;38.709675;10 / 17;99.3;57.0;3.944;25588;2014-11-08 13:51:55:212
-8.6341;12.6115;0.5267;-1.9701;9.5223;-1.2704;-0.4021;3.5202;0.1533;0.8818;-1.1523;-0.7454;28.0;689.2;-234.5;1027.1;334.93;-76.17;122.81;0.0;67.66;19.519749;-96.915634;4348.39;0.0;38.709675;10 / 17;99.3;57.0;3.944;26103;2014-11-08 13:51:55:727
-2.0267;10.5931;0.3753;-1.3637;9.6787;0.7957;-0.1607;1.0283;-0.7213;0.3918;0.9846;0.633;30.0;688.9;-236.3;1014.9;276.09;-74.97;64.96;0.0;70.695;19.519749;-96.915634;4348.39;0.0;38.709675;10 / 17;99.3;57.0;3.944;26607;2014-11-08 13:51:56:231
-1.6352;9.9311;0.1676;-1.3889;9.6963;0.4718;-0.2463;0.2348;-0.3042;0.2069;0.1555;0.1174;26.0;686.7;-237.5;1022.1;283.38;-81.4;71.24;0.0;70.213;19.519749;-96.915634;4348.39;0.0;38.709675;10 / 17;99.3;57.0;3.944;27125;2014-11-08 13:51:56:749
-1.9345;9.3859;-0.1634;-0.9313;9.7526;0.436;-0.5674;-0.8565;-0.1488;0.0839;0.081;0.0615;26.0;685.5;-238.7;1023.0;274.09;-83.69;61.5;0.0;66.739;19.519749;-96.915634;4348.39;0.0;38.709675;10 / 17;99.3;57.0;3.944;27656;2014-11-08 13:51:57:280
-0.7386;9.496;-1.0379;-0.708;9.781;0.0434;0.6111;0.1783;-1.5296;-0.2858;-0.1491;0.0615;27.0;685.6;-238.7;1021.8;299.6;-85.85;86.49;0.0;58.156;19.519749;-96.915634;4348.39;0.0;38.709675;10 / 17;99.3;57.0;3.944;28173;2014-11-08 13:51:57:797
-1.746;10.012;-0.2861;-1.1483;9.7375;0.1826;1.2081;-0.9951;-0.1976;-0.3129;-0.1158;-0.2109;29.0;686.3;-238.7;1020.6;300.68;-82.93;88.16;0.0;64.812;19.519749;-96.915634;4348.39;0.0;38.709675;10 / 17;99.3;57.0;3.944;28698;2014-11-08 13:51:58:322
-0.999;9.9437;-0.2574;-1.2195;9.7285;-0.1983;0.2206;0.2152;-0.0591;0.2554;0.1499;-0.2162;29.0;687.2;-238.3;1020.6;307.97;-83.02;95.31;0.0;61.073;19.519749;-96.915634;4348.39;0.0;38.709675;10 / 17;99.3;57.0;3.944;29233;2014-11-08 13:51:58:857
-15.1541;7.264;-5.5079;-6.7429;6.9256;1.6554;-8.4112;0.3384;-7.1633;0.3353;-2.4485;-3.7396;29.0;690.6;-236.6;1022.6;315.68;-78.74;103.72;0.0;59.105;19.519749;-96.915634;4348.39;0.0;38.709675;9 / 16;99.3;57.0;3.944;29756;2014-11-08 13:51:59:380
-6.9935;3.4177;4.452;-7.2092;3.7294;5.5036;0.2158;-0.3117;-1.0515;0.3353;-0.2442;0.5372;411.0;692.2;-200.0;1009.3;260.38;-18.74;52.96;0.0;61.492;19.519749;-96.915634;4348.39;0.0;38.709675;9 / 16;99.3;57.0;3.944;30288;2014-11-08 13:51:59:912
-6.6571;4.1611;4.7022;-6.869;4.7749;5.1174;0.2119;-0.6138;-0.4152;0.3337;0.2117;0.3116;189.0;692.2;-203.7;1006.0;260.66;-29.14;53.31;0.0;58.114;19.519749;-96.915634;4348.39;0.0;38.709675;9 / 17;99.3;57.0;3.944;30788;2014-11-08 13:52:00:412
3.6811;0.1562;2.9556;-3.3774;6.9239;6.0683;7.0584;-6.7676;-3.1126;-3.31;2.6967;-0.4322;74.0;684.7;-208.1;993.4;244.12;-44.91;29.1;0.0;68.009;19.519749;-96.915634;4348.39;0.0;38.709675;9 / 17;99.3;57.0;3.944;31300;2014-11-08 13:52:00:924
-7.7913;3.4818;5.6485;-6.7528;3.2189;6.341;-1.0385;0.2629;-0.6925;0.6133;0.2629;0.3649;48.0;687.7;-201.0;1001.0;257.85;-16.54;44.51;0.0;53.796;19.519749;-96.915634;4348.39;0.0;38.709675;9 / 17;99.3;57.0;3.944;31822;2014-11-08 13:52:01:446
-6.3111;5.5988;4.3102;-7.0169;5.4052;4.2093;0.7057;0.1937;0.1008;0.7518;-0.3174;0.2131;25.0;691.5;-206.2;1003.5;263.93;-33.45;59.04;0.0;51.234;19.519749;-96.915634;4348.39;0.0;38.709675;9 / 17;99.3;57.0;3.944;32417;2014-11-08 13:52:02:041
-2.1314;4.7333;7.8584;-2.8782;3.955;8.4997;1.3831;0.0278;-0.6982;0.7854;0.1084;-0.1111;36.0;659.0;-206.0;985.7;256.43;-31.25;46.04;0.0;54.527;19.519749;-96.915634;4348.39;0.0;38.709675;9 / 17;99.3;57.0;3.944;32942;2014-11-08 13:52:02:566
0.1945;8.3737;4.4508;0.5457;9.026;3.7952;-0.0213;-1.0144;0.3857;-0.1728;0.1606;-0.9079;66.0;665.8;-232.7;988.1;206.17;-64.18;-7.93;0.0;65.037;19.519749;-96.915634;4348.39;0.0;38.709675;10 / 17;99.3;57.0;3.944;33450;2014-11-08 13:52:03:074
-1.4192;9.2225;2.988;-1.7104;8.8099;3.9535;0.2912;0.4125;-0.9655;-0.6799;1.4687;0.4147;65.0;673.4;-230.9;988.9;216.81;-67.07;3.26;0.0;46.685;19.519749;-96.915634;4348.39;0.0;38.709675;10 / 17;99.3;57.0;3.944;34070;2014-11-08 13:52:03:694
2.314;10.061;1.7759;1.8004;9.5616;1.2266;0.5136;0.4994;0.5493;-0.9542;0.5017;-1.8818;38.0;672.8;-242.5;1000.4;190.39;-77.93;-23.21;0.0;67.282;19.519749;-96.915634;4348.39;0.0;38.709675;10 / 17;99.3;57.0;3.944;34582;2014-11-08 13:52:04:206
-1.4754;8.2462;4.464;-2.0924;8.6634;4.0911;0.3237;0.6051;-0.1562;0.07;-0.0788;0.0016;40.0;679.9;-229.3;994.3;237.18;-63.37;24.28;0.0;51.117;19.519749;-96.915634;4348.39;0.0;38.709675;10 / 17;99.3;57.0;3.944;35089;2014-11-08 13:52:04:713
-2.1662;8.6161;4.3952;-2.1839;8.5742;4.229;0.0177;0.042;0.1661;0.0621;-0.0445;-0.1004;38.0;680.2;-227.7;993.9;240.08;-60.96;27.31;0.0;50.385;19.519749;-96.915634;4348.39;0.0;38.709675;10 / 17;99.3;57.0;3.944;35591;2014-11-08 13:52:05:215
-1.8417;8.3923;4.3042;-2.0986;8.6453;4.1261;0.1675;-0.1406;0.1803;0.0317;0.0242;-0.0288;46.0;679.8;-227.7;993.0;239.46;-61.85;26.65;0.0;47.379;19.519749;-96.915634;4348.39;0.0;38.709675;10 / 17;99.3;57.0;3.944;36092;2014-11-08 13:52:05:716
-1.8381;8.1744;4.8608;-2.2172;8.4636;4.4297;0.3791;-0.2892;0.4311;0.1121;0.1723;0.0152;45.0;678.0;-227.7;992.2;239.49;-59.66;26.59;0.0;48.492;19.519749;-96.915634;4348.39;0.0;38.709675;10 / 17;99.3;57.0;3.944;36622;2014-11-08 13:52:06:246